dist,space,own,resp,Midbreak,LoopTask.thisRepN,LoopTask.thisTrialN,LoopTask.thisN,LoopTask.thisIndex,Bloc_1.thisRepN,Bloc_1.thisTrialN,Bloc_1.thisN,Bloc_1.thisIndex,KeyA,KeyB,Owner,Other,key_instruct.started,text_norm_2.started,image.started,picload.started,jitter,Mask_2.started,Mask_2.stopped,pos,space,col,name,trialtype,Stim.started,key_resp.keys,text_2.started,key_resp.started,key_resp.rt,participant,Owner,KeyA,threshold,date,expName,psychopyVersion,frameRate,
3,PPS,S,n,n,0,0,0,0,0,0,0,0,a,b,yellow,blue,44.25087599999824,44.25087599999824,44.25087599999824,0.045103199998266064,2,69.2152999999962,71.274599700002,35,PPS,y,stim_35_y_u.jpg,test,71.274599700002,None,,,,F0101,yellow,a,50,2023-09-28_19h49.22.432,Ownership,2023.1.2,60.11855378708534,
1,PPS,S,y,n,0,0,0,0,0,1,1,1,a,,yellow,,,,,,2,73.72903019999649,75.79696569999942,25,PPS,y,stim_25_y_u.jpg,filler,75.79696569999942,None,78.25943269999698,78.25943269999698,,F0101,yellow,a,50,2023-09-28_19h49.22.432,Ownership,2023.1.2,60.11855378708534,
1,PPS,S,n,n,0,0,0,0,0,2,2,2,a,,yellow,,,,,,2,79.4574031000011,81.52603999999701,25,PPS,y,stim_25_y_u.jpg,test,81.52603999999701,None,,,,F0101,yellow,a,50,2023-09-28_19h49.22.432,Ownership,2023.1.2,60.11855378708534,
1,EPS,S,n,n,0,0,0,0,0,3,3,3,a,,yellow,,,,,,6,83.98640909999813,90.05028959999618,75,EPS,y,stim_75_y_u.jpg,test,90.05028959999618,None,,,,F0101,yellow,a,50,2023-09-28_19h49.22.432,Ownership,2023.1.2,60.11855378708534,
1,PPS,O,n,n,0,0,0,0,0,4,4,4,a,,yellow,,,,,,6,92.51203939999687,98.57933149999735,25,PPS,b,stim_25_b_u.jpg,test,98.57933149999735,None,,,,F0101,yellow,a,50,2023-09-28_19h49.22.432,Ownership,2023.1.2,60.11855378708534,
1,PPS,O,n,n,0,0,0,0,0,5,5,5,a,,yellow,,,,,,2,101.03732519999903,103.11558749999676,25,PPS,b,stim_25_b_u.jpg,test,103.11558749999676,None,,,,F0101,yellow,a,50,2023-09-28_19h49.22.432,Ownership,2023.1.2,60.11855378708534,
1,PPS,S,n,n,0,0,0,0,0,6,6,6,a,,yellow,,,,,,4,105.56617499999993,109.63161039999977,25,PPS,y,stim_25_y_u.jpg,test,109.63161039999977,None,,,,F0101,yellow,a,50,2023-09-28_19h49.22.432,Ownership,2023.1.2,60.11855378708534,
1,EPS,O,n,n,0,0,0,0,0,7,7,7,a,,yellow,,,,,,2,112.09357330000057,114.16431220000231,75,EPS,b,stim_75_b_u.jpg,test,114.16431220000231,None,,,,F0101,yellow,a,50,2023-09-28_19h49.22.432,Ownership,2023.1.2,60.11855378708534,
3,BOUND,O,n,n,0,0,0,0,0,8,8,8,a,,yellow,,,,,,2,116.62236619999749,118.69408120000298,75,BOUND,b,stim_75_b_u.jpg,test,118.69408120000298,None,,,,F0101,yellow,a,50,2023-09-28_19h49.22.432,Ownership,2023.1.2,60.11855378708534,
1,PPS,S,n,n,0,0,0,0,0,9,9,9,a,,yellow,,,,,,12,121.15065099999629,133.2105212000024,25,PPS,y,stim_25_y_u.jpg,test,133.2105212000024,None,,,,F0101,yellow,a,50,2023-09-28_19h49.22.432,Ownership,2023.1.2,60.11855378708534,
1,PPS,O,n,n,0,0,0,0,0,10,10,10,a,,yellow,,,,,,4,135.6702729000026,139.73077940000076,25,PPS,b,stim_25_b_u.jpg,test,139.73077940000076,None,,,,F0101,yellow,a,50,2023-09-28_19h49.22.432,Ownership,2023.1.2,60.11855378708534,
3,BOUND,S,y,n,0,0,0,0,0,11,11,11,a,,yellow,,,,,,2,142.19780970000284,144.25678090000292,25,BOUND,y,stim_25_y_u.jpg,filler,144.25678090000292,None,146.72642149999592,146.72642149999592,,F0101,yellow,a,50,2023-09-28_19h49.22.432,Ownership,2023.1.2,60.11855378708534,
1,BOUND,S,n,n,0,0,0,0,0,12,12,12,a,,yellow,,,,,,2,147.9250716999959,149.9751843999984,25,BOUND,y,stim_25_y_u.jpg,test,149.9751843999984,None,,,,F0101,yellow,a,50,2023-09-28_19h49.22.432,Ownership,2023.1.2,60.11855378708534,
1,PPS,O,n,n,0,0,0,0,0,13,13,13,a,,yellow,,,,,,4,152.43822689999797,156.50717189999705,25,PPS,b,stim_25_b_u.jpg,test,156.50717189999705,None,,,,F0101,yellow,a,50,2023-09-28_19h49.22.432,Ownership,2023.1.2,60.11855378708534,
1,EPS,O,n,n,0,0,0,0,0,14,14,14,a,,yellow,,,,,,2,158.96547640000063,161.04270820000238,75,EPS,b,stim_75_b_u.jpg,test,161.04270820000238,None,,,,F0101,yellow,a,50,2023-09-28_19h49.22.432,Ownership,2023.1.2,60.11855378708534,
1,EPS,S,n,n,0,0,0,0,0,15,15,15,a,,yellow,,,,,,6,163.47846990000107,169.53389569999854,75,EPS,y,stim_75_y_u.jpg,test,169.53389569999854,None,,,,F0101,yellow,a,50,2023-09-28_19h49.22.432,Ownership,2023.1.2,60.11855378708534,
1,PPS,S,n,n,0,0,0,0,0,16,16,16,a,,yellow,,,,,,2,172.00419520000287,174.08696950000012,25,PPS,y,stim_25_y_u.jpg,test,174.08696950000012,None,,,,F0101,yellow,a,50,2023-09-28_19h49.22.432,Ownership,2023.1.2,60.11855378708534,
1,EPS,S,n,n,0,0,0,0,0,17,17,17,a,,yellow,,,,,,4,176.53319239999837,180.61223040000186,75,EPS,y,stim_75_y_u.jpg,test,180.61223040000186,None,,,,F0101,yellow,a,50,2023-09-28_19h49.22.432,Ownership,2023.1.2,60.11855378708534,
2,PPS,O,n,n,0,0,0,0,0,18,18,18,a,,yellow,,,,,,2,183.06073759999708,185.1318601000021,30,PPS,b,stim_30_b_u.jpg,test,185.1318601000021,None,,,,F0101,yellow,a,50,2023-09-28_19h49.22.432,Ownership,2023.1.2,60.11855378708534,
1,EPS,O,y,n,0,0,0,0,0,19,19,19,a,,yellow,,,,,,10,187.58938160000253,197.65431720000197,75,EPS,b,stim_75_b_u.jpg,filler,197.65431720000197,b,200.11147340000025,200.11147340000025,0.6274477999977535,F0101,yellow,a,50,2023-09-28_19h49.22.432,Ownership,2023.1.2,60.11855378708534,
2,PPS,S,n,n,0,0,0,0,0,20,20,20,a,,yellow,,,,,,4,201.31013240000175,205.40005810000002,30,PPS,y,stim_30_y_u.jpg,test,205.40005810000002,None,,,,F0101,yellow,a,50,2023-09-28_19h49.22.432,Ownership,2023.1.2,60.11855378708534,
2,PPS,S,n,n,0,0,0,0,0,21,21,21,a,,yellow,,,,,,2,207.83722580000176,209.9161626999994,30,PPS,y,stim_30_y_u.jpg,test,209.9161626999994,None,,,,F0101,yellow,a,50,2023-09-28_19h49.22.432,Ownership,2023.1.2,60.11855378708534,
2,PPS,O,n,n,0,0,0,0,0,22,22,22,a,,yellow,,,,,,8,212.3660721999986,220.43400629999815,30,PPS,b,stim_30_b_u.jpg,test,220.43400629999815,None,,,,F0101,yellow,a,50,2023-09-28_19h49.22.432,Ownership,2023.1.2,60.11855378708534,
2,PPS,O,n,n,0,0,0,0,0,23,23,23,a,,yellow,,,,,,4,222.8899919999967,226.95894150000095,30,PPS,b,stim_30_b_u.jpg,test,226.95894150000095,None,,,,F0101,yellow,a,50,2023-09-28_19h49.22.432,Ownership,2023.1.2,60.11855378708534,
1,EPS,O,n,n,0,0,0,0,0,24,24,24,a,,yellow,,,,,,10,229.4178432999979,239.50006030000077,75,EPS,b,stim_75_b_u.jpg,test,239.50006030000077,None,,,,F0101,yellow,a,50,2023-09-28_19h49.22.432,Ownership,2023.1.2,60.11855378708534,
2,PPS,O,n,n,0,0,0,0,0,25,25,25,a,,yellow,,,,,,2,241.9392927000008,244.00839819999965,30,PPS,b,stim_30_b_u.jpg,test,244.00839819999965,None,,,,F0101,yellow,a,50,2023-09-28_19h49.22.432,Ownership,2023.1.2,60.11855378708534,
1,EPS,O,n,n,0,0,0,0,0,26,26,26,a,,yellow,,,,,,4,246.46820299999672,250.53267259999848,75,EPS,b,stim_75_b_u.jpg,test,250.53267259999848,None,,,,F0101,yellow,a,50,2023-09-28_19h49.22.432,Ownership,2023.1.2,60.11855378708534,
1,EPS,S,n,n,0,0,0,0,0,27,27,27,a,,yellow,,,,,,4,252.99518730000273,257.0594654000015,75,EPS,y,stim_75_y_u.jpg,test,257.0594654000015,None,,,,F0101,yellow,a,50,2023-09-28_19h49.22.432,Ownership,2023.1.2,60.11855378708534,
2,EPS,S,n,n,0,0,0,0,0,28,28,28,a,,yellow,,,,,,4,259.522664899996,263.59896090000257,80,EPS,y,stim_80_y_u.jpg,test,263.59896090000257,None,,,,F0101,yellow,a,50,2023-09-28_19h49.22.432,Ownership,2023.1.2,60.11855378708534,
3,BOUND,O,n,n,0,0,0,0,0,29,29,29,a,,yellow,,,,,,2,266.05002460000105,268.12305200000264,80,BOUND,b,stim_80_b_u.jpg,test,268.12305200000264,None,,,,F0101,yellow,a,50,2023-09-28_19h49.22.432,Ownership,2023.1.2,60.11855378708534,
2,EPS,S,n,n,0,0,0,0,0,30,30,30,a,,yellow,,,,,,4,270.57896020000044,274.6625206000026,80,EPS,y,stim_80_y_u.jpg,test,274.6625206000026,None,,,,F0101,yellow,a,50,2023-09-28_19h49.22.432,Ownership,2023.1.2,60.11855378708534,
2,EPS,S,n,n,0,0,0,0,0,31,31,31,a,,yellow,,,,,,2,277.1070639000027,279.17673680000007,80,EPS,y,stim_80_y_u.jpg,test,279.17673680000007,None,,,,F0101,yellow,a,50,2023-09-28_19h49.22.432,Ownership,2023.1.2,60.11855378708534,
2,EPS,O,n,n,0,0,0,0,0,32,32,32,a,,yellow,,,,,,2,281.6351145000008,283.7013131999993,80,EPS,b,stim_80_b_u.jpg,test,283.7013131999993,None,,,,F0101,yellow,a,50,2023-09-28_19h49.22.432,Ownership,2023.1.2,60.11855378708534,
2,EPS,O,n,n,0,0,0,0,0,33,33,33,a,,yellow,,,,,,2,286.14779190000263,288.2181694000028,80,EPS,b,stim_80_b_u.jpg,test,288.2181694000028,None,,,,F0101,yellow,a,50,2023-09-28_19h49.22.432,Ownership,2023.1.2,60.11855378708534,
2,EPS,O,n,n,0,0,0,0,0,34,34,34,a,,yellow,,,,,,2,290.67691729999933,292.75608929999726,80,EPS,b,stim_80_b_u.jpg,test,292.75608929999726,None,,,,F0101,yellow,a,50,2023-09-28_19h49.22.432,Ownership,2023.1.2,60.11855378708534,
2,EPS,O,n,n,0,0,0,0,0,35,35,35,a,,yellow,,,,,,10,295.20628320000105,305.26525709999987,80,EPS,b,stim_80_b_u.jpg,test,305.26525709999987,None,,,,F0101,yellow,a,50,2023-09-28_19h49.22.432,Ownership,2023.1.2,60.11855378708534,
3,EPS,O,n,n,0,0,0,0,0,36,36,36,a,,yellow,,,,,,4,307.7277445,311.797940299999,85,EPS,b,stim_85_b_u.jpg,test,311.797940299999,None,,,,F0101,yellow,a,50,2023-09-28_19h49.22.432,Ownership,2023.1.2,60.11855378708534,
2,EPS,S,n,n,0,0,0,0,0,37,37,37,a,,yellow,,,,,,2,314.25507469999866,316.33012040000176,80,EPS,y,stim_80_y_u.jpg,test,316.33012040000176,None,,,,F0101,yellow,a,50,2023-09-28_19h49.22.432,Ownership,2023.1.2,60.11855378708534,
3,PPS,O,n,n,0,0,0,0,0,38,38,38,a,,yellow,,,,,,2,318.78419479999866,320.8514206999971,35,PPS,b,stim_35_b_u.jpg,test,320.8514206999971,None,,,,F0101,yellow,a,50,2023-09-28_19h49.22.432,Ownership,2023.1.2,60.11855378708534,
3,PPS,O,n,n,0,0,0,0,0,39,39,39,a,,yellow,,,,,,4,323.312245000001,327.3808282999962,35,PPS,b,stim_35_b_u.jpg,test,327.3808282999962,None,,,,F0101,yellow,a,50,2023-09-28_19h49.22.432,Ownership,2023.1.2,60.11855378708534,
1,BOUND,O,y,n,0,0,0,0,0,40,40,40,a,,yellow,,,,,,2,329.84023680000246,331.9063057000021,35,BOUND,b,stim_35_b_u.jpg,filler,331.9063057000021,None,334.3690721000021,334.3690721000021,,F0101,yellow,a,50,2023-09-28_19h49.22.432,Ownership,2023.1.2,60.11855378708534,
3,EPS,O,n,n,0,0,0,0,0,41,41,41,a,,yellow,,,,,,4,335.5680407999971,339.63501019999967,85,EPS,b,stim_85_b_u.jpg,test,339.63501019999967,None,,,,F0101,yellow,a,50,2023-09-28_19h49.22.432,Ownership,2023.1.2,60.11855378708534,
3,EPS,O,n,n,0,0,0,0,0,42,42,42,a,,yellow,,,,,,4,342.09544820000156,346.16073609999876,85,EPS,b,stim_85_b_u.jpg,test,346.16073609999876,None,,,,F0101,yellow,a,50,2023-09-28_19h49.22.432,Ownership,2023.1.2,60.11855378708534,
2,PPS,S,n,n,0,0,0,0,0,43,43,43,a,,yellow,,,,,,2,348.6222581999973,350.6926700999975,30,PPS,y,stim_30_y_u.jpg,test,350.6926700999975,None,,,,F0101,yellow,a,50,2023-09-28_19h49.22.432,Ownership,2023.1.2,60.11855378708534,
2,PPS,S,n,n,0,0,0,0,0,44,44,44,a,,yellow,,,,,,2,353.1519812999977,355.2238486999995,30,PPS,y,stim_30_y_u.jpg,test,355.2238486999995,None,,,,F0101,yellow,a,50,2023-09-28_19h49.22.432,Ownership,2023.1.2,60.11855378708534,
2,BOUND,S,n,n,0,0,0,0,0,45,45,45,a,,yellow,,,,,,6,357.6811910999968,363.7668693000014,30,BOUND,y,stim_30_y_u.jpg,test,363.7668693000014,None,,,,F0101,yellow,a,50,2023-09-28_19h49.22.432,Ownership,2023.1.2,60.11855378708534,
3,EPS,S,n,n,0,0,0,0,0,46,46,46,a,,yellow,,,,,,2,366.2065156000026,368.27875669999776,85,EPS,y,stim_85_y_u.jpg,test,368.27875669999776,None,,,,F0101,yellow,a,50,2023-09-28_19h49.22.432,Ownership,2023.1.2,60.11855378708534,
3,PPS,S,n,n,0,0,0,0,0,47,47,47,a,,yellow,,,,,,2,370.7353548000028,372.8048131999967,35,PPS,y,stim_35_y_u.jpg,test,372.8048131999967,None,,,,F0101,yellow,a,50,2023-09-28_19h49.22.432,Ownership,2023.1.2,60.11855378708534,
2,PPS,O,y,n,0,0,0,0,0,48,48,48,a,,yellow,,,,,,4,375.26462029999675,379.3308840999962,30,PPS,b,stim_30_b_u.jpg,filler,379.3308840999962,None,381.7914806999979,381.7914806999979,,F0101,yellow,a,50,2023-09-28_19h49.22.432,Ownership,2023.1.2,60.11855378708534,
3,PPS,S,n,n,0,0,0,0,0,49,49,49,a,,yellow,,,,,,2,382.98956239999825,385.0557256000029,35,PPS,y,stim_35_y_u.jpg,test,385.0557256000029,None,,,,F0101,yellow,a,50,2023-09-28_19h49.22.432,Ownership,2023.1.2,60.11855378708534,
2,BOUND,O,n,n,0,0,0,0,0,50,50,50,a,,yellow,,,,,,2,387.5029078000007,389.5706035999974,35,BOUND,b,stim_35_b_u.jpg,test,389.5706035999974,None,,,,F0101,yellow,a,50,2023-09-28_19h49.22.432,Ownership,2023.1.2,60.11855378708534,
3,PPS,S,n,n,0,0,0,0,0,51,51,51,a,,yellow,,,,,,6,392.03202410000085,398.1035785999993,35,PPS,y,stim_35_y_u.jpg,test,398.1035785999993,None,,,,F0101,yellow,a,50,2023-09-28_19h49.22.432,Ownership,2023.1.2,60.11855378708534,
3,EPS,S,y,n,0,0,0,0,0,52,52,52,a,,yellow,,,,,,2,400.55775939999876,402.6221222000022,85,EPS,y,stim_85_y_u.jpg,filler,402.6221222000022,b,405.08685619999596,405.08685619999596,0.6599249999999302,F0101,yellow,a,50,2023-09-28_19h49.22.432,Ownership,2023.1.2,60.11855378708534,
3,PPS,S,n,n,0,0,0,0,0,53,53,53,a,,yellow,,,,,,6,406.28571869999723,412.36265779999667,35,PPS,y,stim_35_y_u.jpg,test,412.36265779999667,None,,,,F0101,yellow,a,50,2023-09-28_19h49.22.432,Ownership,2023.1.2,60.11855378708534,
3,EPS,S,n,n,0,0,0,0,0,54,54,54,a,,yellow,,,,,,4,414.81135180000274,418.89868320000096,85,EPS,y,stim_85_y_u.jpg,test,418.89868320000096,None,,,,F0101,yellow,a,50,2023-09-28_19h49.22.432,Ownership,2023.1.2,60.11855378708534,
3,PPS,O,n,n,0,0,0,0,0,55,55,55,a,,yellow,,,,,,4,421.3383728999979,425.39857610000035,35,PPS,b,stim_35_b_u.jpg,test,425.39857610000035,None,,,,F0101,yellow,a,50,2023-09-28_19h49.22.432,Ownership,2023.1.2,60.11855378708534,
3,BOUND,S,n,n,0,0,0,0,0,56,56,56,a,,yellow,,,,,,4,427.8652959999963,431.92906460000086,35,BOUND,y,stim_35_y_u.jpg,test,431.92906460000086,None,,,,F0101,yellow,a,50,2023-09-28_19h49.22.432,Ownership,2023.1.2,60.11855378708534,
3,EPS,O,n,n,0,0,0,0,0,57,57,57,a,,yellow,,,,,,4,434.3925925000003,438.46308690000296,85,EPS,b,stim_85_b_u.jpg,test,438.46308690000296,None,,,,F0101,yellow,a,50,2023-09-28_19h49.22.432,Ownership,2023.1.2,60.11855378708534,
3,EPS,S,n,n,0,0,0,0,0,58,58,58,a,,yellow,,,,,,2,440.920197200001,443.01173050000216,85,EPS,y,stim_85_y_u.jpg,test,443.01173050000216,None,,,,F0101,yellow,a,50,2023-09-28_19h49.22.432,Ownership,2023.1.2,60.11855378708534,
3,EPS,S,n,n,0,0,0,0,0,59,59,59,a,,yellow,,,,,,2,445.4494854000004,447.5306045999969,85,EPS,y,stim_85_y_u.jpg,test,447.5306045999969,None,,,,F0101,yellow,a,50,2023-09-28_19h49.22.432,Ownership,2023.1.2,60.11855378708534,
1,PPS,S,n,n,1,0,1,0,0,0,0,0,a,,yellow,,,,,,2,449.9967121000009,452.06026230000134,25,PPS,y,stim_25_y_u.jpg,test,452.06026230000134,None,,,,F0101,yellow,a,50,2023-09-28_19h49.22.432,Ownership,2023.1.2,60.11855378708534,
1,PPS,S,n,n,1,0,1,0,0,1,1,1,a,,yellow,,,,,,2,454.52505669999664,456.5912884999998,25,PPS,y,stim_25_y_u.jpg,test,456.5912884999998,None,,,,F0101,yellow,a,50,2023-09-28_19h49.22.432,Ownership,2023.1.2,60.11855378708534,
1,EPS,O,n,n,1,0,1,0,0,2,2,2,a,,yellow,,,,,,2,459.05294100000174,461.12072839999746,75,EPS,b,stim_75_b_u.jpg,test,461.12072839999746,None,,,,F0101,yellow,a,50,2023-09-28_19h49.22.432,Ownership,2023.1.2,60.11855378708534,
1,PPS,S,n,n,1,0,1,0,0,3,3,3,a,,yellow,,,,,,6,463.582396400001,469.65474859999813,25,PPS,y,stim_25_y_u.jpg,test,469.65474859999813,None,,,,F0101,yellow,a,50,2023-09-28_19h49.22.432,Ownership,2023.1.2,60.11855378708534,
1,PPS,S,n,n,1,0,1,0,0,4,4,4,a,,yellow,,,,,,6,472.10719979999703,478.1646529999998,25,PPS,y,stim_25_y_u.jpg,test,478.1646529999998,None,,,,F0101,yellow,a,50,2023-09-28_19h49.22.432,Ownership,2023.1.2,60.11855378708534,
1,EPS,O,n,n,1,0,1,0,0,5,5,5,a,,yellow,,,,,,2,480.6331358000025,482.7042199999996,75,EPS,b,stim_75_b_u.jpg,test,482.7042199999996,None,,,,F0101,yellow,a,50,2023-09-28_19h49.22.432,Ownership,2023.1.2,60.11855378708534,
1,EPS,S,n,n,1,0,1,0,0,6,6,6,a,,yellow,,,,,,4,485.1620578000002,489.2270012000008,75,EPS,y,stim_75_y_u.jpg,test,489.2270012000008,None,,,,F0101,yellow,a,50,2023-09-28_19h49.22.432,Ownership,2023.1.2,60.11855378708534,
2,BOUND,S,y,n,1,0,1,0,0,7,7,7,a,,yellow,,,,,,2,491.6888809000011,493.75729599999613,75,BOUND,y,stim_75_y_u.jpg,filler,493.75729599999613,b,496.2183595000024,496.2183595000024,0.8406210000030114,F0101,yellow,a,50,2023-09-28_19h49.22.432,Ownership,2023.1.2,60.11855378708534,
2,PPS,S,n,n,1,0,1,0,0,8,8,8,a,,yellow,,,,,,2,497.4171847999969,499.4917096999998,30,PPS,y,stim_30_y_u.jpg,test,499.4917096999998,None,,,,F0101,yellow,a,50,2023-09-28_19h49.22.432,Ownership,2023.1.2,60.11855378708534,
1,EPS,O,n,n,1,0,1,0,0,9,9,9,a,,yellow,,,,,,12,501.9463618000009,514.0104494999978,75,EPS,b,stim_75_b_u.jpg,test,514.0104494999978,None,,,,F0101,yellow,a,50,2023-09-28_19h49.22.432,Ownership,2023.1.2,60.11855378708534,
1,PPS,O,n,n,1,0,1,0,0,10,10,10,a,,yellow,,,,,,4,516.4658321999959,520.5376342000018,25,PPS,b,stim_25_b_u.jpg,test,520.5376342000018,None,,,,F0101,yellow,a,50,2023-09-28_19h49.22.432,Ownership,2023.1.2,60.11855378708534,
3,BOUND,S,n,n,1,0,1,0,0,11,11,11,a,,yellow,,,,,,2,522.9930591000011,525.0590728000025,25,BOUND,y,stim_25_y_u.jpg,test,525.0590728000025,None,,,,F0101,yellow,a,50,2023-09-28_19h49.22.432,Ownership,2023.1.2,60.11855378708534,
1,EPS,O,n,n,1,0,1,0,0,12,12,12,a,,yellow,,,,,,2,527.5224366999973,529.6042650000018,75,EPS,b,stim_75_b_u.jpg,test,529.6042650000018,None,,,,F0101,yellow,a,50,2023-09-28_19h49.22.432,Ownership,2023.1.2,60.11855378708534,
1,EPS,S,n,n,1,0,1,0,0,13,13,13,a,,yellow,,,,,,4,532.0503814999975,536.1209938000029,75,EPS,y,stim_75_y_u.jpg,test,536.1209938000029,None,,,,F0101,yellow,a,50,2023-09-28_19h49.22.432,Ownership,2023.1.2,60.11855378708534,
1,PPS,O,n,n,1,0,1,0,0,14,14,14,a,,yellow,,,,,,2,538.5794927999959,540.6500585999966,25,PPS,b,stim_25_b_u.jpg,test,540.6500585999966,None,,,,F0101,yellow,a,50,2023-09-28_19h49.22.432,Ownership,2023.1.2,60.11855378708534,
1,EPS,S,n,n,1,0,1,0,0,15,15,15,a,,yellow,,,,,,6,543.1077205999973,549.1742569999988,75,EPS,y,stim_75_y_u.jpg,test,549.1742569999988,None,,,,F0101,yellow,a,50,2023-09-28_19h49.22.432,Ownership,2023.1.2,60.11855378708534,
2,EPS,O,n,n,1,0,1,0,0,16,16,16,a,,yellow,,,,,,2,551.6332342000023,553.7015879000028,80,EPS,b,stim_80_b_u.jpg,test,553.7015879000028,None,,,,F0101,yellow,a,50,2023-09-28_19h49.22.432,Ownership,2023.1.2,60.11855378708534,
1,PPS,O,n,n,1,0,1,0,0,17,17,17,a,,yellow,,,,,,4,556.1622849999985,560.2254757999981,25,PPS,b,stim_25_b_u.jpg,test,560.2254757999981,None,,,,F0101,yellow,a,50,2023-09-28_19h49.22.432,Ownership,2023.1.2,60.11855378708534,
1,EPS,S,n,n,1,0,1,0,0,18,18,18,a,,yellow,,,,,,2,562.6889420000007,564.7587522999966,75,EPS,y,stim_75_y_u.jpg,test,564.7587522999966,None,,,,F0101,yellow,a,50,2023-09-28_19h49.22.432,Ownership,2023.1.2,60.11855378708534,
1,PPS,O,n,n,1,0,1,0,0,19,19,19,a,,yellow,,,,,,10,567.218959400001,577.2837087000007,25,PPS,b,stim_25_b_u.jpg,test,577.2837087000007,None,,,,F0101,yellow,a,50,2023-09-28_19h49.22.432,Ownership,2023.1.2,60.11855378708534,
2,EPS,O,n,n,1,0,1,0,0,20,20,20,a,,yellow,,,,,,4,579.740125999997,583.8145124000002,80,EPS,b,stim_80_b_u.jpg,test,583.8145124000002,None,,,,F0101,yellow,a,50,2023-09-28_19h49.22.432,Ownership,2023.1.2,60.11855378708534,
2,EPS,S,n,n,1,0,1,0,0,21,21,21,a,,yellow,,,,,,2,586.2677788000001,588.3365952000022,80,EPS,y,stim_80_y_u.jpg,test,588.3365952000022,None,,,,F0101,yellow,a,50,2023-09-28_19h49.22.432,Ownership,2023.1.2,60.11855378708534,
2,EPS,S,n,n,1,0,1,0,0,22,22,22,a,,yellow,,,,,,8,590.7966009000011,598.8749623999975,80,EPS,y,stim_80_y_u.jpg,test,598.8749623999975,None,,,,F0101,yellow,a,50,2023-09-28_19h49.22.432,Ownership,2023.1.2,60.11855378708534,
2,PPS,S,n,n,1,0,1,0,0,23,23,23,a,,yellow,,,,,,4,601.3206057999996,605.3854439999996,30,PPS,y,stim_30_y_u.jpg,test,605.3854439999996,None,,,,F0101,yellow,a,50,2023-09-28_19h49.22.432,Ownership,2023.1.2,60.11855378708534,
2,PPS,O,y,n,1,0,1,0,0,24,24,24,a,,yellow,,,,,,10,607.8474873000014,617.9072104000006,30,PPS,b,stim_30_b_u.jpg,filler,617.9072104000006,None,620.3688809000014,620.3688809000014,,F0101,yellow,a,50,2023-09-28_19h49.22.432,Ownership,2023.1.2,60.11855378708534,
2,EPS,S,n,n,1,0,1,0,0,25,25,25,a,,yellow,,,,,,2,621.5681656000015,623.6368403000015,80,EPS,y,stim_80_y_u.jpg,test,623.6368403000015,None,,,,F0101,yellow,a,50,2023-09-28_19h49.22.432,Ownership,2023.1.2,60.11855378708534,
2,PPS,S,n,n,1,0,1,0,0,26,26,26,a,,yellow,,,,,,4,626.0968332999983,630.1714750000028,30,PPS,y,stim_30_y_u.jpg,test,630.1714750000028,None,,,,F0101,yellow,a,50,2023-09-28_19h49.22.432,Ownership,2023.1.2,60.11855378708534,
2,PPS,O,n,n,1,0,1,0,0,27,27,27,a,,yellow,,,,,,4,632.6238962999996,636.708848000002,30,PPS,b,stim_30_b_u.jpg,test,636.708848000002,None,,,,F0101,yellow,a,50,2023-09-28_19h49.22.432,Ownership,2023.1.2,60.11855378708534,
2,EPS,S,n,n,1,0,1,0,0,28,28,28,a,,yellow,,,,,,4,639.1512201000005,643.2189348000029,80,EPS,y,stim_80_y_u.jpg,test,643.2189348000029,None,,,,F0101,yellow,a,50,2023-09-28_19h49.22.432,Ownership,2023.1.2,60.11855378708534,
3,BOUND,O,n,n,1,0,1,0,0,29,29,29,a,,yellow,,,,,,2,645.6789820999984,647.7457324999996,80,BOUND,b,stim_80_b_u.jpg,test,647.7457324999996,None,,,,F0101,yellow,a,50,2023-09-28_19h49.22.432,Ownership,2023.1.2,60.11855378708534,
3,PPS,S,y,n,1,0,1,0,0,30,30,30,a,,yellow,,,,,,4,650.208114699999,654.2893754999968,35,PPS,y,stim_35_y_u.jpg,filler,654.2893754999968,None,656.733980099998,656.733980099998,,F0101,yellow,a,50,2023-09-28_19h49.22.432,Ownership,2023.1.2,60.11855378708534,
2,PPS,O,n,n,1,0,1,0,0,31,31,31,a,,yellow,,,,,,2,657.933635399997,660.0062724000018,30,PPS,b,stim_30_b_u.jpg,test,660.0062724000018,None,,,,F0101,yellow,a,50,2023-09-28_19h49.22.432,Ownership,2023.1.2,60.11855378708534,
3,EPS,S,n,n,1,0,1,0,0,32,32,32,a,,yellow,,,,,,2,662.4627935999961,664.5305413999959,85,EPS,y,stim_85_y_u.jpg,test,664.5305413999959,None,,,,F0101,yellow,a,50,2023-09-28_19h49.22.432,Ownership,2023.1.2,60.11855378708534,
3,BOUND,O,n,n,1,0,1,0,0,33,33,33,a,,yellow,,,,,,2,666.9921216000002,669.0731317999962,85,BOUND,b,stim_85_b_u.jpg,test,669.0731317999962,None,,,,F0101,yellow,a,50,2023-09-28_19h49.22.432,Ownership,2023.1.2,60.11855378708534,
3,EPS,S,y,n,1,0,1,0,0,34,34,34,a,,yellow,,,,,,2,671.5217047999977,673.589000400003,85,EPS,y,stim_85_y_u.jpg,filler,673.589000400003,b,676.0507731999969,676.0507731999969,0.576189899999008,F0101,yellow,a,50,2023-09-28_19h49.22.432,Ownership,2023.1.2,60.11855378708534,
3,BOUND,S,n,n,1,0,1,0,0,35,35,35,a,,yellow,,,,,,10,677.2494297000012,687.314773099999,85,BOUND,y,stim_85_y_u.jpg,test,687.314773099999,None,,,,F0101,yellow,a,50,2023-09-28_19h49.22.432,Ownership,2023.1.2,60.11855378708534,
2,PPS,O,n,n,1,0,1,0,0,36,36,36,a,,yellow,,,,,,4,689.7705978000013,693.8551315000004,30,PPS,b,stim_30_b_u.jpg,test,693.8551315000004,None,,,,F0101,yellow,a,50,2023-09-28_19h49.22.432,Ownership,2023.1.2,60.11855378708534,
2,PPS,S,n,n,1,0,1,0,0,37,37,37,a,,yellow,,,,,,2,696.2979090000008,698.3639572999964,30,PPS,y,stim_30_y_u.jpg,test,698.3639572999964,None,,,,F0101,yellow,a,50,2023-09-28_19h49.22.432,Ownership,2023.1.2,60.11855378708534,
2,PPS,O,n,n,1,0,1,0,0,38,38,38,a,,yellow,,,,,,2,700.8282069999987,702.9070726999998,30,PPS,b,stim_30_b_u.jpg,test,702.9070726999998,None,,,,F0101,yellow,a,50,2023-09-28_19h49.22.432,Ownership,2023.1.2,60.11855378708534,
3,PPS,S,n,n,1,0,1,0,0,39,39,39,a,,yellow,,,,,,4,705.3568264999994,709.4263309000016,35,PPS,y,stim_35_y_u.jpg,test,709.4263309000016,None,,,,F0101,yellow,a,50,2023-09-28_19h49.22.432,Ownership,2023.1.2,60.11855378708534,
3,PPS,O,n,n,1,0,1,0,0,40,40,40,a,,yellow,,,,,,2,711.8837933999966,713.9562619999997,35,PPS,b,stim_35_b_u.jpg,test,713.9562619999997,None,,,,F0101,yellow,a,50,2023-09-28_19h49.22.432,Ownership,2023.1.2,60.11855378708534,
2,EPS,O,n,n,1,0,1,0,0,41,41,41,a,,yellow,,,,,,4,716.4129086999965,720.4796972999975,80,EPS,b,stim_80_b_u.jpg,test,720.4796972999975,None,,,,F0101,yellow,a,50,2023-09-28_19h49.22.432,Ownership,2023.1.2,60.11855378708534,
3,PPS,S,n,n,1,0,1,0,0,42,42,42,a,,yellow,,,,,,4,722.9395717000007,727.0060589999994,35,PPS,y,stim_35_y_u.jpg,test,727.0060589999994,None,,,,F0101,yellow,a,50,2023-09-28_19h49.22.432,Ownership,2023.1.2,60.11855378708534,
3,PPS,S,n,n,1,0,1,0,0,43,43,43,a,,yellow,,,,,,2,729.4672871000002,731.562490999997,35,PPS,y,stim_35_y_u.jpg,test,731.562490999997,None,,,,F0101,yellow,a,50,2023-09-28_19h49.22.432,Ownership,2023.1.2,60.11855378708534,
3,EPS,S,n,n,1,0,1,0,0,44,44,44,a,,yellow,,,,,,2,733.9966065999979,736.0647586999985,85,EPS,y,stim_85_y_u.jpg,test,736.0647586999985,None,,,,F0101,yellow,a,50,2023-09-28_19h49.22.432,Ownership,2023.1.2,60.11855378708534,
3,EPS,S,n,n,1,0,1,0,0,45,45,45,a,,yellow,,,,,,6,738.5253420000008,744.5971578000026,85,EPS,y,stim_85_y_u.jpg,test,744.5971578000026,None,,,,F0101,yellow,a,50,2023-09-28_19h49.22.432,Ownership,2023.1.2,60.11855378708534,
2,EPS,O,n,n,1,0,1,0,0,46,46,46,a,,yellow,,,,,,2,747.0511763999966,749.150473499998,80,EPS,b,stim_80_b_u.jpg,test,749.150473499998,None,,,,F0101,yellow,a,50,2023-09-28_19h49.22.432,Ownership,2023.1.2,60.11855378708534,
3,EPS,O,n,n,1,0,1,0,0,47,47,47,a,,yellow,,,,,,2,751.5801510000019,753.6508850999962,85,EPS,b,stim_85_b_u.jpg,test,753.6508850999962,None,,,,F0101,yellow,a,50,2023-09-28_19h49.22.432,Ownership,2023.1.2,60.11855378708534,
3,PPS,O,n,n,1,0,1,0,0,48,48,48,a,,yellow,,,,,,4,756.1098692000014,760.175344700001,35,PPS,b,stim_35_b_u.jpg,test,760.175344700001,None,,,,F0101,yellow,a,50,2023-09-28_19h49.22.432,Ownership,2023.1.2,60.11855378708534,
2,BOUND,O,y,n,1,0,1,0,0,49,49,49,a,,yellow,,,,,,2,762.6361545999971,764.7276023000013,35,BOUND,b,stim_35_b_u.jpg,filler,764.7276023000013,None,767.165004100003,767.165004100003,,F0101,yellow,a,50,2023-09-28_19h49.22.432,Ownership,2023.1.2,60.11855378708534,
3,PPS,S,n,n,1,0,1,0,0,50,50,50,a,,yellow,,,,,,2,768.3641200999991,770.4198031999986,35,PPS,y,stim_35_y_u.jpg,test,770.4198031999986,None,,,,F0101,yellow,a,50,2023-09-28_19h49.22.432,Ownership,2023.1.2,60.11855378708534,
3,PPS,O,n,n,1,0,1,0,0,51,51,51,a,,yellow,,,,,,6,772.8930371999959,778.9711991000004,35,PPS,b,stim_35_b_u.jpg,test,778.9711991000004,None,,,,F0101,yellow,a,50,2023-09-28_19h49.22.432,Ownership,2023.1.2,60.11855378708534,
3,BOUND,S,n,n,1,0,1,0,0,52,52,52,a,,yellow,,,,,,2,781.4192910999991,783.485729400003,35,BOUND,y,stim_35_y_u.jpg,test,783.485729400003,None,,,,F0101,yellow,a,50,2023-09-28_19h49.22.432,Ownership,2023.1.2,60.11855378708534,
3,EPS,O,n,n,1,0,1,0,0,53,53,53,a,,yellow,,,,,,6,785.9477241999994,792.0337553999998,85,EPS,b,stim_85_b_u.jpg,test,792.0337553999998,None,,,,F0101,yellow,a,50,2023-09-28_19h49.22.432,Ownership,2023.1.2,60.11855378708534,
3,EPS,O,n,n,1,0,1,0,0,54,54,54,a,,yellow,,,,,,4,794.4733988000007,798.5488845,85,EPS,b,stim_85_b_u.jpg,test,798.5488845,None,,,,F0101,yellow,a,50,2023-09-28_19h49.22.432,Ownership,2023.1.2,60.11855378708534,
3,EPS,O,y,n,1,0,1,0,0,55,55,55,a,,yellow,,,,,,4,801.0002892999983,805.0654968000017,85,EPS,b,stim_85_b_u.jpg,filler,805.0654968000017,b,807.5273738999967,807.5273738999967,0.6350980999995954,F0101,yellow,a,50,2023-09-28_19h49.22.432,Ownership,2023.1.2,60.11855378708534,
3,PPS,O,n,n,1,0,1,0,0,56,56,56,a,,yellow,,,,,,4,808.7261548000024,812.8119560999985,35,PPS,b,stim_35_b_u.jpg,test,812.8119560999985,None,,,,F0101,yellow,a,50,2023-09-28_19h49.22.432,Ownership,2023.1.2,60.11855378708534,
3,EPS,O,n,n,1,0,1,0,0,57,57,57,a,,yellow,,,,,,4,815.2540154000017,819.3228340999995,85,EPS,b,stim_85_b_u.jpg,test,819.3228340999995,None,,,,F0101,yellow,a,50,2023-09-28_19h49.22.432,Ownership,2023.1.2,60.11855378708534,
3,EPS,S,n,n,1,0,1,0,0,58,58,58,a,,yellow,,,,,,2,821.7815103999965,823.8669265999997,85,EPS,y,stim_85_y_u.jpg,test,823.8669265999997,None,,,,F0101,yellow,a,50,2023-09-28_19h49.22.432,Ownership,2023.1.2,60.11855378708534,
3,BOUND,O,n,y,1,0,1,0,0,59,59,59,a,,yellow,,,,,,2,826.3103441999992,828.3916427000004,85,BOUND,b,stim_85_b_u.jpg,test,828.3916427000004,None,,,,F0101,yellow,a,50,2023-09-28_19h49.22.432,Ownership,2023.1.2,60.11855378708534,
,,,,,,,,,,,,,,,,,830.8394677999968,830.8394677999968,830.8394677999968,0.00022220000391826034,,,,,,,,,,,,,,,,,,,,,,
