dist,space,own,resp,Midbreak,LoopTask.thisRepN,LoopTask.thisTrialN,LoopTask.thisN,LoopTask.thisIndex,Bloc_1.thisRepN,Bloc_1.thisTrialN,Bloc_1.thisN,Bloc_1.thisIndex,KeyA,KeyB,Owner,Other,key_instruct.started,text_norm_2.started,image.started,picload.started,jitter,Mask_2.started,Mask_2.stopped,pos,space,col,name,trialtype,Stim.started,key_resp.keys,text_2.started,key_resp.started,TextEnd.started,key_instruct_3.started,participant,Owner,KeyA,threshold,date,expName,psychopyVersion,frameRate,
3,PPS,S,n,n,0,0,0,0,0,0,0,0,b,a,blue,yellow,13.526593899998261,13.526593899998261,13.526593899998261,0.033980799998971634,2,38.51197769999999,40.56230299999879,35,PPS,b,stim_35_b_u.jpg,test,40.56230299999879,None,,,,,F0101,blue,b,50,2023-09-28_15h30.58.184,Ownership,2023.1.2,60.05064671484583,
1,PPS,S,y,n,0,0,0,0,0,1,1,1,b,,blue,,,,,,2,43.039821099999244,45.07846939999945,25,PPS,b,stim_25_b_u.jpg,filler,45.07846939999945,None,47.565958999999566,47.565958999999566,,,F0101,blue,b,50,2023-09-28_15h30.58.184,Ownership,2023.1.2,60.05064671484583,
1,PPS,S,n,n,0,0,0,0,0,2,2,2,b,,blue,,,,,,2,48.76790289999917,50.807061199997406,25,PPS,b,stim_25_b_u.jpg,test,50.807061199997406,None,,,,,F0101,blue,b,50,2023-09-28_15h30.58.184,Ownership,2023.1.2,60.05064671484583,
1,EPS,S,n,n,0,0,0,0,0,3,3,3,b,,blue,,,,,,6,53.29686459999721,59.33363619999727,75,EPS,b,stim_75_b_u.jpg,test,59.33363619999727,None,,,,,F0101,blue,b,50,2023-09-28_15h30.58.184,Ownership,2023.1.2,60.05064671484583,
1,PPS,O,n,n,0,0,0,0,0,4,4,4,b,,blue,,,,,,6,61.82217369999853,67.85785009999745,25,PPS,y,stim_25_y_u.jpg,test,67.85785009999745,None,,,,,F0101,blue,b,50,2023-09-28_15h30.58.184,Ownership,2023.1.2,60.05064671484583,
1,PPS,O,n,n,0,0,0,0,0,5,5,5,b,,blue,,,,,,2,70.3478353999999,72.39631379999992,25,PPS,y,stim_25_y_u.jpg,test,72.39631379999992,None,,,,,F0101,blue,b,50,2023-09-28_15h30.58.184,Ownership,2023.1.2,60.05064671484583,
1,PPS,S,n,n,0,0,0,0,0,6,6,6,b,,blue,,,,,,4,74.87666069999977,78.91581079999742,25,PPS,b,stim_25_b_u.jpg,test,78.91581079999742,None,,,,,F0101,blue,b,50,2023-09-28_15h30.58.184,Ownership,2023.1.2,60.05064671484583,
1,EPS,O,n,n,0,0,0,0,0,7,7,7,b,,blue,,,,,,2,81.40396799999871,83.44308889999957,75,EPS,y,stim_75_y_u.jpg,test,83.44308889999957,None,,,,,F0101,blue,b,50,2023-09-28_15h30.58.184,Ownership,2023.1.2,60.05064671484583,
3,BOUND,O,n,n,0,0,0,0,0,8,8,8,b,,blue,,,,,,2,85.93297059999895,87.9722546999983,75,BOUND,y,stim_75_y_u.jpg,test,87.9722546999983,None,,,,,F0101,blue,b,50,2023-09-28_15h30.58.184,Ownership,2023.1.2,60.05064671484583,
1,PPS,S,n,n,0,0,0,0,0,9,9,9,b,,blue,,,,,,12,90.46227349999754,102.49332359999971,25,PPS,b,stim_25_b_u.jpg,test,102.49332359999971,None,,,,,F0101,blue,b,50,2023-09-28_15h30.58.184,Ownership,2023.1.2,60.05064671484583,
1,PPS,O,n,n,0,0,0,0,0,10,10,10,b,,blue,,,,,,4,104.98269679999794,109.03063949999705,25,PPS,y,stim_25_y_u.jpg,test,109.03063949999705,None,,,,,F0101,blue,b,50,2023-09-28_15h30.58.184,Ownership,2023.1.2,60.05064671484583,
3,BOUND,S,y,n,0,0,0,0,0,11,11,11,b,,blue,,,,,,2,111.50920659999974,113.54822989999957,25,BOUND,b,stim_25_b_u.jpg,filler,113.54822989999957,None,116.03550220000034,116.03550220000034,,,F0101,blue,b,50,2023-09-28_15h30.58.184,Ownership,2023.1.2,60.05064671484583,
1,BOUND,S,n,n,0,0,0,0,0,12,12,12,b,,blue,,,,,,2,117.23705219999829,119.27644399999917,25,BOUND,b,stim_25_b_u.jpg,test,119.27644399999917,None,,,,,F0101,blue,b,50,2023-09-28_15h30.58.184,Ownership,2023.1.2,60.05064671484583,
1,PPS,O,n,n,0,0,0,0,0,13,13,13,b,,blue,,,,,,4,121.76636829999916,125.80630569999994,25,PPS,y,stim_25_y_u.jpg,test,125.80630569999994,None,,,,,F0101,blue,b,50,2023-09-28_15h30.58.184,Ownership,2023.1.2,60.05064671484583,
1,EPS,O,n,n,0,0,0,0,0,14,14,14,b,,blue,,,,,,2,128.29372560000047,130.33422629999768,75,EPS,y,stim_75_y_u.jpg,test,130.33422629999768,None,,,,,F0101,blue,b,50,2023-09-28_15h30.58.184,Ownership,2023.1.2,60.05064671484583,
1,EPS,S,n,n,0,0,0,0,0,15,15,15,b,,blue,,,,,,6,132.82258159999765,138.85714000000007,75,EPS,b,stim_75_b_u.jpg,test,138.85714000000007,None,,,,,F0101,blue,b,50,2023-09-28_15h30.58.184,Ownership,2023.1.2,60.05064671484583,
1,PPS,S,n,n,0,0,0,0,0,16,16,16,b,,blue,,,,,,2,141.3480141,143.39717910000036,25,PPS,b,stim_25_b_u.jpg,test,143.39717910000036,None,,,,,F0101,blue,b,50,2023-09-28_15h30.58.184,Ownership,2023.1.2,60.05064671484583,
1,EPS,S,n,n,0,0,0,0,0,17,17,17,b,,blue,,,,,,4,145.87710209999932,149.91692939999848,75,EPS,b,stim_75_b_u.jpg,test,149.91692939999848,None,,,,,F0101,blue,b,50,2023-09-28_15h30.58.184,Ownership,2023.1.2,60.05064671484583,
2,PPS,O,n,n,0,0,0,0,0,18,18,18,b,,blue,,,,,,2,152.40471169999728,154.44388049999907,30,PPS,y,stim_30_y_u.jpg,test,154.44388049999907,None,,,,,F0101,blue,b,50,2023-09-28_15h30.58.184,Ownership,2023.1.2,60.05064671484583,
1,EPS,O,y,n,0,0,0,0,0,19,19,19,b,,blue,,,,,,10,156.9334291999985,166.97742359999756,75,EPS,y,stim_75_y_u.jpg,filler,166.97742359999756,None,169.45236589999695,169.45236589999695,,,F0101,blue,b,50,2023-09-28_15h30.58.184,Ownership,2023.1.2,60.05064671484583,
2,PPS,S,n,n,0,0,0,0,0,20,20,20,b,,blue,,,,,,4,170.65406559999974,174.7063096999991,30,PPS,b,stim_30_b_u.jpg,test,174.7063096999991,None,,,,,F0101,blue,b,50,2023-09-28_15h30.58.184,Ownership,2023.1.2,60.05064671484583,
2,PPS,S,n,n,0,0,0,0,0,21,21,21,b,,blue,,,,,,2,177.1818882999978,179.2245387999974,30,PPS,b,stim_30_b_u.jpg,test,179.2245387999974,None,,,,,F0101,blue,b,50,2023-09-28_15h30.58.184,Ownership,2023.1.2,60.05064671484583,
2,PPS,O,n,n,0,0,0,0,0,22,22,22,b,,blue,,,,,,8,181.7104709999985,189.75927859999865,30,PPS,y,stim_30_y_u.jpg,test,189.75927859999865,None,,,,,F0101,blue,b,50,2023-09-28_15h30.58.184,Ownership,2023.1.2,60.05064671484583,
2,PPS,O,n,n,0,0,0,0,0,23,23,23,b,,blue,,,,,,4,192.23371889999908,196.272179399999,30,PPS,y,stim_30_y_u.jpg,test,196.272179399999,None,,,,,F0101,blue,b,50,2023-09-28_15h30.58.184,Ownership,2023.1.2,60.05064671484583,
1,EPS,O,n,n,0,0,0,0,0,24,24,24,b,,blue,,,,,,10,198.76104999999734,208.80754719999823,75,EPS,y,stim_75_y_u.jpg,test,208.80754719999823,None,,,,,F0101,blue,b,50,2023-09-28_15h30.58.184,Ownership,2023.1.2,60.05064671484583,
2,PPS,O,n,n,0,0,0,0,0,25,25,25,b,,blue,,,,,,2,211.28268869999738,213.32147479999912,30,PPS,y,stim_30_y_u.jpg,test,213.32147479999912,None,,,,,F0101,blue,b,50,2023-09-28_15h30.58.184,Ownership,2023.1.2,60.05064671484583,
1,EPS,O,n,n,0,0,0,0,0,26,26,26,b,,blue,,,,,,4,215.81282920000012,219.8575208000002,75,EPS,y,stim_75_y_u.jpg,test,219.8575208000002,None,,,,,F0101,blue,b,50,2023-09-28_15h30.58.184,Ownership,2023.1.2,60.05064671484583,
1,EPS,S,n,n,0,0,0,0,0,27,27,27,b,,blue,,,,,,4,222.33903439999995,226.41012319999936,75,EPS,b,stim_75_b_u.jpg,test,226.41012319999936,None,,,,,F0101,blue,b,50,2023-09-28_15h30.58.184,Ownership,2023.1.2,60.05064671484583,
2,EPS,S,n,n,0,0,0,0,0,28,28,28,b,,blue,,,,,,4,228.86645839999983,232.91222809999817,80,EPS,b,stim_80_b_u.jpg,test,232.91222809999817,None,,,,,F0101,blue,b,50,2023-09-28_15h30.58.184,Ownership,2023.1.2,60.05064671484583,
3,BOUND,O,n,n,0,0,0,0,0,29,29,29,b,,blue,,,,,,2,235.39377319999767,237.4377085999986,80,BOUND,y,stim_80_y_u.jpg,test,237.4377085999986,None,,,,,F0101,blue,b,50,2023-09-28_15h30.58.184,Ownership,2023.1.2,60.05064671484583,
2,EPS,S,n,n,0,0,0,0,0,30,30,30,b,,blue,,,,,,4,239.9227441999974,243.9684778999981,80,EPS,b,stim_80_b_u.jpg,test,243.9684778999981,None,,,,,F0101,blue,b,50,2023-09-28_15h30.58.184,Ownership,2023.1.2,60.05064671484583,
2,EPS,S,n,n,0,0,0,0,0,31,31,31,b,,blue,,,,,,2,246.45010379999803,248.49246219999986,80,EPS,b,stim_80_b_u.jpg,test,248.49246219999986,None,,,,,F0101,blue,b,50,2023-09-28_15h30.58.184,Ownership,2023.1.2,60.05064671484583,
2,EPS,O,n,n,0,0,0,0,0,32,32,32,b,,blue,,,,,,2,250.97884580000027,253.02344299999822,80,EPS,y,stim_80_y_u.jpg,test,253.02344299999822,None,,,,,F0101,blue,b,50,2023-09-28_15h30.58.184,Ownership,2023.1.2,60.05064671484583,
2,EPS,O,n,n,0,0,0,0,0,33,33,33,b,,blue,,,,,,2,255.50814769999852,257.5725969999985,80,EPS,y,stim_80_y_u.jpg,test,257.5725969999985,None,,,,,F0101,blue,b,50,2023-09-28_15h30.58.184,Ownership,2023.1.2,60.05064671484583,
2,EPS,O,n,n,0,0,0,0,0,34,34,34,b,,blue,,,,,,2,260.0371978999974,262.0775565999975,80,EPS,y,stim_80_y_u.jpg,test,262.0775565999975,None,,,,,F0101,blue,b,50,2023-09-28_15h30.58.184,Ownership,2023.1.2,60.05064671484583,
2,EPS,O,n,n,0,0,0,0,0,35,35,35,b,,blue,,,,,,10,264.5663210999992,274.6074774999979,80,EPS,y,stim_80_y_u.jpg,test,274.6074774999979,None,,,,,F0101,blue,b,50,2023-09-28_15h30.58.184,Ownership,2023.1.2,60.05064671484583,
3,EPS,O,n,n,0,0,0,0,0,36,36,36,b,,blue,,,,,,4,277.0880604999984,281.14670019999903,85,EPS,y,stim_85_y_u.jpg,test,281.14670019999903,None,,,,,F0101,blue,b,50,2023-09-28_15h30.58.184,Ownership,2023.1.2,60.05064671484583,
2,EPS,S,n,n,0,0,0,0,0,37,37,37,b,,blue,,,,,,2,283.6157944999977,285.6786050999981,80,EPS,b,stim_80_b_u.jpg,test,285.6786050999981,None,,,,,F0101,blue,b,50,2023-09-28_15h30.58.184,Ownership,2023.1.2,60.05064671484583,
3,PPS,O,n,n,0,0,0,0,0,38,38,38,b,,blue,,,,,,2,288.1445105999992,290.2018606999991,35,PPS,y,stim_35_y_u.jpg,test,290.2018606999991,None,,,,,F0101,blue,b,50,2023-09-28_15h30.58.184,Ownership,2023.1.2,60.05064671484583,
3,PPS,O,n,n,0,0,0,0,0,39,39,39,b,,blue,,,,,,4,292.67322779999813,296.717709499997,35,PPS,y,stim_35_y_u.jpg,test,296.717709499997,None,,,,,F0101,blue,b,50,2023-09-28_15h30.58.184,Ownership,2023.1.2,60.05064671484583,
1,BOUND,O,y,n,0,0,0,0,0,40,40,40,b,,blue,,,,,,2,299.20094769999923,301.2502181999989,35,BOUND,y,stim_35_y_u.jpg,filler,301.2502181999989,None,303.72691089999716,303.72691089999716,,,F0101,blue,b,50,2023-09-28_15h30.58.184,Ownership,2023.1.2,60.05064671484583,
3,EPS,O,n,n,0,0,0,0,0,41,41,41,b,,blue,,,,,,4,304.92874449999726,308.97583060000034,85,EPS,y,stim_85_y_u.jpg,test,308.97583060000034,None,,,,,F0101,blue,b,50,2023-09-28_15h30.58.184,Ownership,2023.1.2,60.05064671484583,
3,EPS,O,n,n,0,0,0,0,0,42,42,42,b,,blue,,,,,,4,311.45592789999864,315.4989725999985,85,EPS,y,stim_85_y_u.jpg,test,315.4989725999985,None,,,,,F0101,blue,b,50,2023-09-28_15h30.58.184,Ownership,2023.1.2,60.05064671484583,
2,PPS,S,n,n,0,0,0,0,0,43,43,43,b,,blue,,,,,,2,317.983295799997,320.0287224999993,30,PPS,b,stim_30_b_u.jpg,test,320.0287224999993,None,,,,,F0101,blue,b,50,2023-09-28_15h30.58.184,Ownership,2023.1.2,60.05064671484583,
2,PPS,S,n,n,0,0,0,0,0,44,44,44,b,,blue,,,,,,2,322.5125679999983,324.5603809999993,30,PPS,b,stim_30_b_u.jpg,test,324.5603809999993,None,,,,,F0101,blue,b,50,2023-09-28_15h30.58.184,Ownership,2023.1.2,60.05064671484583,
2,BOUND,S,n,n,0,0,0,0,0,45,45,45,b,,blue,,,,,,6,327.0413435999981,333.0843515999986,30,BOUND,b,stim_30_b_u.jpg,test,333.0843515999986,None,,,,,F0101,blue,b,50,2023-09-28_15h30.58.184,Ownership,2023.1.2,60.05064671484583,
3,EPS,S,n,n,0,0,0,0,0,46,46,46,b,,blue,,,,,,2,335.56685639999705,337.60877179999807,85,EPS,b,stim_85_b_u.jpg,test,337.60877179999807,None,,,,,F0101,blue,b,50,2023-09-28_15h30.58.184,Ownership,2023.1.2,60.05064671484583,
3,PPS,S,n,n,0,0,0,0,0,47,47,47,b,,blue,,,,,,2,340.0960754999978,342.1356453999979,35,PPS,b,stim_35_b_u.jpg,test,342.1356453999979,None,,,,,F0101,blue,b,50,2023-09-28_15h30.58.184,Ownership,2023.1.2,60.05064671484583,
2,PPS,O,y,n,0,0,0,0,0,48,48,48,b,,blue,,,,,,4,344.6253298999982,348.68013869999777,30,PPS,y,stim_30_y_u.jpg,filler,348.68013869999777,None,351.14948079999886,351.14948079999886,,,F0101,blue,b,50,2023-09-28_15h30.58.184,Ownership,2023.1.2,60.05064671484583,
3,PPS,S,n,n,0,0,0,0,0,49,49,49,b,,blue,,,,,,2,352.350909599998,354.3907959999997,35,PPS,b,stim_35_b_u.jpg,test,354.3907959999997,None,,,,,F0101,blue,b,50,2023-09-28_15h30.58.184,Ownership,2023.1.2,60.05064671484583,
2,BOUND,O,n,n,0,0,0,0,0,50,50,50,b,,blue,,,,,,2,356.88050160000057,358.92205549999926,35,BOUND,y,stim_35_y_u.jpg,test,358.92205549999926,None,,,,,F0101,blue,b,50,2023-09-28_15h30.58.184,Ownership,2023.1.2,60.05064671484583,
3,PPS,S,n,n,0,0,0,0,0,51,51,51,b,,blue,,,,,,6,361.4090636999972,367.44390249999924,35,PPS,b,stim_35_b_u.jpg,test,367.44390249999924,None,,,,,F0101,blue,b,50,2023-09-28_15h30.58.184,Ownership,2023.1.2,60.05064671484583,
3,EPS,S,y,n,0,0,0,0,0,52,52,52,b,,blue,,,,,,2,369.93464779999704,371.97361719999753,85,EPS,b,stim_85_b_u.jpg,filler,371.97361719999753,None,374.4609582999983,374.4609582999983,,,F0101,blue,b,50,2023-09-28_15h30.58.184,Ownership,2023.1.2,60.05064671484583,
3,PPS,S,n,n,0,0,0,0,0,53,53,53,b,,blue,,,,,,6,375.66320039999846,381.6971111999992,35,PPS,b,stim_35_b_u.jpg,test,381.6971111999992,None,,,,,F0101,blue,b,50,2023-09-28_15h30.58.184,Ownership,2023.1.2,60.05064671484583,
3,EPS,S,n,n,0,0,0,0,0,54,54,54,b,,blue,,,,,,4,384.18796799999836,388.24097359999723,85,EPS,b,stim_85_b_u.jpg,test,388.24097359999723,None,,,,,F0101,blue,b,50,2023-09-28_15h30.58.184,Ownership,2023.1.2,60.05064671484583,
3,PPS,O,n,n,0,0,0,0,0,55,55,55,b,,blue,,,,,,4,390.71533519999866,394.7521439999982,35,PPS,y,stim_35_y_u.jpg,test,394.7521439999982,None,,,,,F0101,blue,b,50,2023-09-28_15h30.58.184,Ownership,2023.1.2,60.05064671484583,
3,BOUND,S,n,n,0,0,0,0,0,56,56,56,b,,blue,,,,,,4,397.24245130000054,401.2800007000005,35,BOUND,b,stim_35_b_u.jpg,test,401.2800007000005,None,,,,,F0101,blue,b,50,2023-09-28_15h30.58.184,Ownership,2023.1.2,60.05064671484583,
3,EPS,O,n,n,0,0,0,0,0,57,57,57,b,,blue,,,,,,4,403.7696952999977,407.8190684000001,85,EPS,y,stim_85_y_u.jpg,test,407.8190684000001,None,,,,,F0101,blue,b,50,2023-09-28_15h30.58.184,Ownership,2023.1.2,60.05064671484583,
3,EPS,S,n,n,0,0,0,0,0,58,58,58,b,,blue,,,,,,2,410.29696539999713,412.3472832999978,85,EPS,b,stim_85_b_u.jpg,test,412.3472832999978,None,,,,,F0101,blue,b,50,2023-09-28_15h30.58.184,Ownership,2023.1.2,60.05064671484583,
3,EPS,S,n,n,0,0,0,0,0,59,59,59,b,,blue,,,,,,2,414.8260642999994,416.8647100999988,85,EPS,b,stim_85_b_u.jpg,test,416.8647100999988,None,,,,,F0101,blue,b,50,2023-09-28_15h30.58.184,Ownership,2023.1.2,60.05064671484583,
1,PPS,S,n,n,1,0,1,0,0,0,0,0,b,,blue,,,,,,2,419.35516169999755,421.3992961999975,25,PPS,b,stim_25_b_u.jpg,test,421.3992961999975,None,,,,,F0101,blue,b,50,2023-09-28_15h30.58.184,Ownership,2023.1.2,60.05064671484583,
1,PPS,S,n,n,1,0,1,0,0,1,1,1,b,,blue,,,,,,2,423.88448699999935,425.9234058999973,25,PPS,b,stim_25_b_u.jpg,test,425.9234058999973,None,,,,,F0101,blue,b,50,2023-09-28_15h30.58.184,Ownership,2023.1.2,60.05064671484583,
1,EPS,O,n,n,1,0,1,0,0,2,2,2,b,,blue,,,,,,2,428.41337799999746,430.4532803999973,75,EPS,y,stim_75_y_u.jpg,test,430.4532803999973,None,,,,,F0101,blue,b,50,2023-09-28_15h30.58.184,Ownership,2023.1.2,60.05064671484583,
1,PPS,S,n,n,1,0,1,0,0,3,3,3,b,,blue,,,,,,6,432.94242870000016,438.97680949999994,25,PPS,b,stim_25_b_u.jpg,test,438.97680949999994,None,,,,,F0101,blue,b,50,2023-09-28_15h30.58.184,Ownership,2023.1.2,60.05064671484583,
1,PPS,S,n,n,1,0,1,0,0,4,4,4,b,,blue,,,,,,6,441.46791089999897,447.52264309999737,25,PPS,b,stim_25_b_u.jpg,test,447.52264309999737,None,,,,,F0101,blue,b,50,2023-09-28_15h30.58.184,Ownership,2023.1.2,60.05064671484583,
1,EPS,O,n,n,1,0,1,0,0,5,5,5,b,,blue,,,,,,2,449.9932552999999,452.03219700000045,75,EPS,y,stim_75_y_u.jpg,test,452.03219700000045,None,,,,,F0101,blue,b,50,2023-09-28_15h30.58.184,Ownership,2023.1.2,60.05064671484583,
1,EPS,S,n,n,1,0,1,0,0,6,6,6,b,,blue,,,,,,4,454.52225669999825,458.5705108999973,75,EPS,b,stim_75_b_u.jpg,test,458.5705108999973,None,,,,,F0101,blue,b,50,2023-09-28_15h30.58.184,Ownership,2023.1.2,60.05064671484583,
2,BOUND,S,y,n,1,0,1,0,0,7,7,7,b,,blue,,,,,,2,461.049717599999,463.08878899999763,75,BOUND,b,stim_75_b_u.jpg,filler,463.08878899999763,None,465.575829399997,465.575829399997,,,F0101,blue,b,50,2023-09-28_15h30.58.184,Ownership,2023.1.2,60.05064671484583,
2,PPS,S,n,n,1,0,1,0,0,8,8,8,b,,blue,,,,,,2,466.7777611999991,468.84856579999905,30,PPS,b,stim_30_b_u.jpg,test,468.84856579999905,None,,,,,F0101,blue,b,50,2023-09-28_15h30.58.184,Ownership,2023.1.2,60.05064671484583,
1,EPS,O,n,n,1,0,1,0,0,9,9,9,b,,blue,,,,,,12,471.30672389999745,483.34457239999756,75,EPS,y,stim_75_y_u.jpg,test,483.34457239999756,None,,,,,F0101,blue,b,50,2023-09-28_15h30.58.184,Ownership,2023.1.2,60.05064671484583,
1,PPS,O,n,n,1,0,1,0,0,10,10,10,b,,blue,,,,,,4,485.82653260000006,489.8715864000005,25,PPS,y,stim_25_y_u.jpg,test,489.8715864000005,None,,,,,F0101,blue,b,50,2023-09-28_15h30.58.184,Ownership,2023.1.2,60.05064671484583,
3,BOUND,S,n,n,1,0,1,0,0,11,11,11,b,,blue,,,,,,2,492.35348130000057,494.3968982999977,25,BOUND,b,stim_25_b_u.jpg,test,494.3968982999977,None,,,,,F0101,blue,b,50,2023-09-28_15h30.58.184,Ownership,2023.1.2,60.05064671484583,
1,EPS,O,n,n,1,0,1,0,0,12,12,12,b,,blue,,,,,,2,496.88278889999856,498.91191609999805,75,EPS,y,stim_75_y_u.jpg,test,498.91191609999805,None,,,,,F0101,blue,b,50,2023-09-28_15h30.58.184,Ownership,2023.1.2,60.05064671484583,
1,EPS,S,n,n,1,0,1,0,0,13,13,13,b,,blue,,,,,,4,501.39509349999935,505.43287359999886,75,EPS,b,stim_75_b_u.jpg,test,505.43287359999886,None,,,,,F0101,blue,b,50,2023-09-28_15h30.58.184,Ownership,2023.1.2,60.05064671484583,
1,PPS,O,n,n,1,0,1,0,0,14,14,14,b,,blue,,,,,,2,507.9224871999977,509.96350529999836,25,PPS,y,stim_25_y_u.jpg,test,509.96350529999836,None,,,,,F0101,blue,b,50,2023-09-28_15h30.58.184,Ownership,2023.1.2,60.05064671484583,
1,EPS,S,n,n,1,0,1,0,0,15,15,15,b,,blue,,,,,,6,512.4516212999988,518.4991082999986,75,EPS,b,stim_75_b_u.jpg,test,518.4991082999986,None,,,,,F0101,blue,b,50,2023-09-28_15h30.58.184,Ownership,2023.1.2,60.05064671484583,
2,EPS,O,n,n,1,0,1,0,0,16,16,16,b,,blue,,,,,,2,520.9771182999975,523.0170507999974,80,EPS,y,stim_80_y_u.jpg,test,523.0170507999974,None,,,,,F0101,blue,b,50,2023-09-28_15h30.58.184,Ownership,2023.1.2,60.05064671484583,
1,PPS,O,n,n,1,0,1,0,0,17,17,17,b,,blue,,,,,,4,525.5060317999996,529.547165699998,25,PPS,y,stim_25_y_u.jpg,test,529.547165699998,None,,,,,F0101,blue,b,50,2023-09-28_15h30.58.184,Ownership,2023.1.2,60.05064671484583,
1,EPS,S,n,n,1,0,1,0,0,18,18,18,b,,blue,,,,,,2,532.033355399999,534.0750756999987,75,EPS,b,stim_75_b_u.jpg,test,534.0750756999987,None,,,,,F0101,blue,b,50,2023-09-28_15h30.58.184,Ownership,2023.1.2,60.05064671484583,
1,PPS,O,n,n,1,0,1,0,0,19,19,19,b,,blue,,,,,,10,536.5623952999995,546.6255872999973,25,PPS,y,stim_25_y_u.jpg,test,546.6255872999973,None,,,,,F0101,blue,b,50,2023-09-28_15h30.58.184,Ownership,2023.1.2,60.05064671484583,
2,EPS,O,n,n,1,0,1,0,0,20,20,20,b,,blue,,,,,,4,549.0839814999999,553.1632148999997,80,EPS,y,stim_80_y_u.jpg,test,553.1632148999997,None,,,,,F0101,blue,b,50,2023-09-28_15h30.58.184,Ownership,2023.1.2,60.05064671484583,
2,EPS,S,n,n,1,0,1,0,0,21,21,21,b,,blue,,,,,,2,555.6112942999971,557.6526809999996,80,EPS,b,stim_80_b_u.jpg,test,557.6526809999996,None,,,,,F0101,blue,b,50,2023-09-28_15h30.58.184,Ownership,2023.1.2,60.05064671484583,
2,EPS,S,n,n,1,0,1,0,0,22,22,22,b,,blue,,,,,,8,560.1404941000001,568.1810377999973,80,EPS,b,stim_80_b_u.jpg,test,568.1810377999973,None,,,,,F0101,blue,b,50,2023-09-28_15h30.58.184,Ownership,2023.1.2,60.05064671484583,
2,PPS,S,n,n,1,0,1,0,0,23,23,23,b,,blue,,,,,,4,570.663929899998,574.7077021999976,30,PPS,b,stim_30_b_u.jpg,test,574.7077021999976,None,,,,,F0101,blue,b,50,2023-09-28_15h30.58.184,Ownership,2023.1.2,60.05064671484583,
2,PPS,O,y,n,1,0,1,0,0,24,24,24,b,,blue,,,,,,10,577.1912211999988,587.2281304999997,30,PPS,y,stim_30_y_u.jpg,filler,587.2281304999997,None,589.7099206999992,589.7099206999992,,,F0101,blue,b,50,2023-09-28_15h30.58.184,Ownership,2023.1.2,60.05064671484583,
2,EPS,S,n,n,1,0,1,0,0,25,25,25,b,,blue,,,,,,2,590.9118309999976,592.9531351999976,80,EPS,b,stim_80_b_u.jpg,test,592.9531351999976,None,,,,,F0101,blue,b,50,2023-09-28_15h30.58.184,Ownership,2023.1.2,60.05064671484583,
2,PPS,S,n,n,1,0,1,0,0,26,26,26,b,,blue,,,,,,4,595.4407264999973,599.4850974999972,30,PPS,b,stim_30_b_u.jpg,test,599.4850974999972,None,,,,,F0101,blue,b,50,2023-09-28_15h30.58.184,Ownership,2023.1.2,60.05064671484583,
2,PPS,O,n,n,1,0,1,0,0,27,27,27,b,,blue,,,,,,4,601.9679880000003,606.0094447999982,30,PPS,y,stim_30_y_u.jpg,test,606.0094447999982,None,,,,,F0101,blue,b,50,2023-09-28_15h30.58.184,Ownership,2023.1.2,60.05064671484583,
2,EPS,S,n,n,1,0,1,0,0,28,28,28,b,,blue,,,,,,4,608.4951744999998,612.5365920999975,80,EPS,b,stim_80_b_u.jpg,test,612.5365920999975,None,,,,,F0101,blue,b,50,2023-09-28_15h30.58.184,Ownership,2023.1.2,60.05064671484583,
3,BOUND,O,n,n,1,0,1,0,0,29,29,29,b,,blue,,,,,,2,615.0223527999988,617.0636163999989,80,BOUND,y,stim_80_y_u.jpg,test,617.0636163999989,None,,,,,F0101,blue,b,50,2023-09-28_15h30.58.184,Ownership,2023.1.2,60.05064671484583,
3,PPS,S,y,n,1,0,1,0,0,30,30,30,b,,blue,,,,,,4,619.5516544999991,623.5887781999991,35,PPS,b,stim_35_b_u.jpg,filler,623.5887781999991,None,626.0759980000003,626.0759980000003,,,F0101,blue,b,50,2023-09-28_15h30.58.184,Ownership,2023.1.2,60.05064671484583,
2,PPS,O,n,n,1,0,1,0,0,31,31,31,b,,blue,,,,,,2,627.277817299997,629.3224440999984,30,PPS,y,stim_30_y_u.jpg,test,629.3224440999984,None,,,,,F0101,blue,b,50,2023-09-28_15h30.58.184,Ownership,2023.1.2,60.05064671484583,
3,EPS,S,n,n,1,0,1,0,0,32,32,32,b,,blue,,,,,,2,631.8068252999983,633.853425199999,85,EPS,b,stim_85_b_u.jpg,test,633.853425199999,None,,,,,F0101,blue,b,50,2023-09-28_15h30.58.184,Ownership,2023.1.2,60.05064671484583,
3,BOUND,O,n,n,1,0,1,0,0,33,33,33,b,,blue,,,,,,2,636.3358296999977,638.3781080999979,85,BOUND,y,stim_85_y_u.jpg,test,638.3781080999979,None,,,,,F0101,blue,b,50,2023-09-28_15h30.58.184,Ownership,2023.1.2,60.05064671484583,
3,EPS,S,y,n,1,0,1,0,0,34,34,34,b,,blue,,,,,,2,640.865117399997,642.9072080000005,85,EPS,b,stim_85_b_u.jpg,filler,642.9072080000005,None,645.391458799997,645.391458799997,,,F0101,blue,b,50,2023-09-28_15h30.58.184,Ownership,2023.1.2,60.05064671484583,
3,BOUND,S,n,n,1,0,1,0,0,35,35,35,b,,blue,,,,,,10,646.5931644999982,656.6728215000003,85,BOUND,b,stim_85_b_u.jpg,test,656.6728215000003,None,,,,,F0101,blue,b,50,2023-09-28_15h30.58.184,Ownership,2023.1.2,60.05064671484583,
2,PPS,O,n,n,1,0,1,0,0,36,36,36,b,,blue,,,,,,4,659.1146401000005,663.1957031999991,30,PPS,y,stim_30_y_u.jpg,test,663.1957031999991,None,,,,,F0101,blue,b,50,2023-09-28_15h30.58.184,Ownership,2023.1.2,60.05064671484583,
2,PPS,S,n,n,1,0,1,0,0,37,37,37,b,,blue,,,,,,2,665.6419358999992,667.6877561000001,30,PPS,b,stim_30_b_u.jpg,test,667.6877561000001,None,,,,,F0101,blue,b,50,2023-09-28_15h30.58.184,Ownership,2023.1.2,60.05064671484583,
2,PPS,O,n,n,1,0,1,0,0,38,38,38,b,,blue,,,,,,2,670.1710950999986,672.2126188000002,30,PPS,y,stim_30_y_u.jpg,test,672.2126188000002,None,,,,,F0101,blue,b,50,2023-09-28_15h30.58.184,Ownership,2023.1.2,60.05064671484583,
3,PPS,S,n,n,1,0,1,0,0,39,39,39,b,,blue,,,,,,4,674.7000210999977,678.7395565999977,35,PPS,b,stim_35_b_u.jpg,test,678.7395565999977,None,,,,,F0101,blue,b,50,2023-09-28_15h30.58.184,Ownership,2023.1.2,60.05064671484583,
3,PPS,O,n,n,1,0,1,0,0,40,40,40,b,,blue,,,,,,2,681.2273117999976,683.2757996,35,PPS,y,stim_35_y_u.jpg,test,683.2757996,None,,,,,F0101,blue,b,50,2023-09-28_15h30.58.184,Ownership,2023.1.2,60.05064671484583,
2,EPS,O,n,n,1,0,1,0,0,41,41,41,b,,blue,,,,,,4,685.756407599998,689.7928033999997,80,EPS,y,stim_80_y_u.jpg,test,689.7928033999997,None,,,,,F0101,blue,b,50,2023-09-28_15h30.58.184,Ownership,2023.1.2,60.05064671484583,
3,PPS,S,n,n,1,0,1,0,0,42,42,42,b,,blue,,,,,,4,692.2837352999995,696.3290562999973,35,PPS,b,stim_35_b_u.jpg,test,696.3290562999973,None,,,,,F0101,blue,b,50,2023-09-28_15h30.58.184,Ownership,2023.1.2,60.05064671484583,
3,PPS,S,n,n,1,0,1,0,0,43,43,43,b,,blue,,,,,,2,698.8109573000002,700.8508975000004,35,PPS,b,stim_35_b_u.jpg,test,700.8508975000004,None,,,,,F0101,blue,b,50,2023-09-28_15h30.58.184,Ownership,2023.1.2,60.05064671484583,
3,EPS,S,n,n,1,0,1,0,0,44,44,44,b,,blue,,,,,,2,703.340081899998,705.4305810999977,85,EPS,b,stim_85_b_u.jpg,test,705.4305810999977,None,,,,,F0101,blue,b,50,2023-09-28_15h30.58.184,Ownership,2023.1.2,60.05064671484583,
3,EPS,S,n,n,1,0,1,0,0,45,45,45,b,,blue,,,,,,6,707.8693026000001,713.9218378999976,85,EPS,b,stim_85_b_u.jpg,test,713.9218378999976,None,,,,,F0101,blue,b,50,2023-09-28_15h30.58.184,Ownership,2023.1.2,60.05064671484583,
2,EPS,O,n,n,1,0,1,0,0,46,46,46,b,,blue,,,,,,2,716.3946063000003,718.4349404999994,80,EPS,y,stim_80_y_u.jpg,test,718.4349404999994,None,,,,,F0101,blue,b,50,2023-09-28_15h30.58.184,Ownership,2023.1.2,60.05064671484583,
3,EPS,O,n,n,1,0,1,0,0,47,47,47,b,,blue,,,,,,2,720.9236832999995,722.9633388999973,85,EPS,y,stim_85_y_u.jpg,test,722.9633388999973,None,,,,,F0101,blue,b,50,2023-09-28_15h30.58.184,Ownership,2023.1.2,60.05064671484583,
3,PPS,O,n,n,1,0,1,0,0,48,48,48,b,,blue,,,,,,4,725.4527990999995,729.4966972000002,35,PPS,y,stim_35_y_u.jpg,test,729.4966972000002,None,,,,,F0101,blue,b,50,2023-09-28_15h30.58.184,Ownership,2023.1.2,60.05064671484583,
2,BOUND,O,y,n,1,0,1,0,0,49,49,49,b,,blue,,,,,,2,731.9797485999989,734.0324870999975,35,BOUND,y,stim_35_y_u.jpg,filler,734.0324870999975,None,736.5063306999982,736.5063306999982,,,F0101,blue,b,50,2023-09-28_15h30.58.184,Ownership,2023.1.2,60.05064671484583,
3,PPS,S,n,n,1,0,1,0,0,50,50,50,b,,blue,,,,,,2,737.7079515000005,739.756910199998,35,PPS,b,stim_35_b_u.jpg,test,739.756910199998,None,,,,,F0101,blue,b,50,2023-09-28_15h30.58.184,Ownership,2023.1.2,60.05064671484583,
3,PPS,O,n,n,1,0,1,0,0,51,51,51,b,,blue,,,,,,6,742.2370028999976,748.297972299999,35,PPS,y,stim_35_y_u.jpg,test,748.297972299999,None,,,,,F0101,blue,b,50,2023-09-28_15h30.58.184,Ownership,2023.1.2,60.05064671484583,
3,BOUND,S,n,n,1,0,1,0,0,52,52,52,b,,blue,,,,,,2,750.7623776999972,752.801462899999,35,BOUND,b,stim_35_b_u.jpg,test,752.801462899999,None,,,,,F0101,blue,b,50,2023-09-28_15h30.58.184,Ownership,2023.1.2,60.05064671484583,
3,EPS,O,n,n,1,0,1,0,0,53,53,53,b,,blue,,,,,,6,755.2916138,761.3305177999973,85,EPS,y,stim_85_y_u.jpg,test,761.3305177999973,None,,,,,F0101,blue,b,50,2023-09-28_15h30.58.184,Ownership,2023.1.2,60.05064671484583,
3,EPS,O,n,n,1,0,1,0,0,54,54,54,b,,blue,,,,,,4,763.8171623999988,767.8890876999976,85,EPS,y,stim_85_y_u.jpg,test,767.8890876999976,None,,,,,F0101,blue,b,50,2023-09-28_15h30.58.184,Ownership,2023.1.2,60.05064671484583,
3,EPS,O,y,n,1,0,1,0,0,55,55,55,b,,blue,,,,,,4,770.3442458999998,774.4304663999974,85,EPS,y,stim_85_y_u.jpg,filler,774.4304663999974,None,776.8687275999982,776.8687275999982,,,F0101,blue,b,50,2023-09-28_15h30.58.184,Ownership,2023.1.2,60.05064671484583,
3,PPS,O,n,n,1,0,1,0,0,56,56,56,b,,blue,,,,,,4,778.0704862999992,782.1361623999983,35,PPS,y,stim_35_y_u.jpg,test,782.1361623999983,None,,,,,F0101,blue,b,50,2023-09-28_15h30.58.184,Ownership,2023.1.2,60.05064671484583,
3,EPS,O,n,n,1,0,1,0,0,57,57,57,b,,blue,,,,,,4,784.5975680999982,788.6522809999988,85,EPS,y,stim_85_y_u.jpg,test,788.6522809999988,None,,,,,F0101,blue,b,50,2023-09-28_15h30.58.184,Ownership,2023.1.2,60.05064671484583,
3,EPS,S,n,n,1,0,1,0,0,58,58,58,b,,blue,,,,,,2,791.1247764999971,793.1688811999993,85,EPS,b,stim_85_b_u.jpg,test,793.1688811999993,None,,,,,F0101,blue,b,50,2023-09-28_15h30.58.184,Ownership,2023.1.2,60.05064671484583,
3,BOUND,O,n,y,1,0,1,0,0,59,59,59,b,,blue,,,,,,2,795.6542302999987,797.6973596999997,85,BOUND,y,stim_85_y_u.jpg,test,797.6973596999997,None,,,,,F0101,blue,b,50,2023-09-28_15h30.58.184,Ownership,2023.1.2,60.05064671484583,
1,PPS,O,n,n,2,0,2,0,0,0,0,0,b,,blue,,800.1803129,800.1803129,800.1803129,7.859999823267572e-05,2,830.1884892999988,832.2406064999996,25,PPS,y,stim_25_y_u.jpg,test,832.2406064999996,None,,,,,F0101,blue,b,50,2023-09-28_15h30.58.184,Ownership,2023.1.2,60.05064671484583,
1,EPS,O,n,n,2,0,2,0,0,1,1,1,b,,blue,,,,,,2,834.7173860999974,836.7589542999995,75,EPS,y,stim_75_y_u.jpg,test,836.7589542999995,None,,,,,F0101,blue,b,50,2023-09-28_15h30.58.184,Ownership,2023.1.2,60.05064671484583,
1,EPS,S,n,n,2,0,2,0,0,2,2,2,b,,blue,,,,,,2,839.246776699998,841.2866063999973,75,EPS,b,stim_75_b_u.jpg,test,841.2866063999973,None,,,,,F0101,blue,b,50,2023-09-28_15h30.58.184,Ownership,2023.1.2,60.05064671484583,
1,EPS,O,n,n,2,0,2,0,0,3,3,3,b,,blue,,,,,,6,843.7755636000002,849.818658199998,75,EPS,y,stim_75_y_u.jpg,test,849.818658199998,None,,,,,F0101,blue,b,50,2023-09-28_15h30.58.184,Ownership,2023.1.2,60.05064671484583,
1,PPS,S,n,n,2,0,2,0,0,4,4,4,b,,blue,,,,,,6,852.3010075999991,858.3354933999981,25,PPS,b,stim_25_b_u.jpg,test,858.3354933999981,None,,,,,F0101,blue,b,50,2023-09-28_15h30.58.184,Ownership,2023.1.2,60.05064671484583,
1,EPS,S,n,n,2,0,2,0,0,5,5,5,b,,blue,,,,,,2,860.8264788999986,862.8767325999979,75,EPS,b,stim_75_b_u.jpg,test,862.8767325999979,None,,,,,F0101,blue,b,50,2023-09-28_15h30.58.184,Ownership,2023.1.2,60.05064671484583,
1,EPS,S,n,n,2,0,2,0,0,6,6,6,b,,blue,,,,,,4,865.3556521999999,869.3925181999984,75,EPS,b,stim_75_b_u.jpg,test,869.3925181999984,None,,,,,F0101,blue,b,50,2023-09-28_15h30.58.184,Ownership,2023.1.2,60.05064671484583,
2,PPS,S,y,n,2,0,2,0,0,7,7,7,b,,blue,,,,,,2,871.8833616999982,873.9241250999985,30,PPS,b,stim_30_b_u.jpg,filler,873.9241250999985,None,876.4090149000003,876.4090149000003,,,F0101,blue,b,50,2023-09-28_15h30.58.184,Ownership,2023.1.2,60.05064671484583,
3,BOUND,S,n,n,2,0,2,0,0,8,8,8,b,,blue,,,,,,2,877.6107030999992,879.6599623000002,30,BOUND,b,stim_30_b_u.jpg,test,879.6599623000002,None,,,,,F0101,blue,b,50,2023-09-28_15h30.58.184,Ownership,2023.1.2,60.05064671484583,
3,EPS,O,y,n,2,0,2,0,0,9,9,9,b,,blue,,,,,,12,882.1402774999988,894.1959319999987,85,EPS,y,stim_85_y_u.jpg,filler,894.1959319999987,None,896.656944899998,896.656944899998,,,F0101,blue,b,50,2023-09-28_15h30.58.184,Ownership,2023.1.2,60.05064671484583,
1,EPS,S,n,n,2,0,2,0,0,10,10,10,b,,blue,,,,,,4,897.8587059999991,901.9148921999986,75,EPS,b,stim_75_b_u.jpg,test,901.9148921999986,None,,,,,F0101,blue,b,50,2023-09-28_15h30.58.184,Ownership,2023.1.2,60.05064671484583,
3,BOUND,O,n,n,2,0,2,0,0,11,11,11,b,,blue,,,,,,2,904.3873877000005,906.4571585999984,75,BOUND,y,stim_75_y_u.jpg,test,906.4571585999984,None,,,,,F0101,blue,b,50,2023-09-28_15h30.58.184,Ownership,2023.1.2,60.05064671484583,
1,PPS,O,n,n,2,0,2,0,0,12,12,12,b,,blue,,,,,,2,908.8997873999979,910.9386400000003,25,PPS,y,stim_25_y_u.jpg,test,910.9386400000003,None,,,,,F0101,blue,b,50,2023-09-28_15h30.58.184,Ownership,2023.1.2,60.05064671484583,
1,EPS,O,n,n,2,0,2,0,0,13,13,13,b,,blue,,,,,,4,913.4272062999989,917.4657850999974,75,EPS,y,stim_75_y_u.jpg,test,917.4657850999974,None,,,,,F0101,blue,b,50,2023-09-28_15h30.58.184,Ownership,2023.1.2,60.05064671484583,
2,EPS,S,n,n,2,0,2,0,0,14,14,14,b,,blue,,,,,,2,919.9542550000006,921.9968569999983,80,EPS,b,stim_80_b_u.jpg,test,921.9968569999983,None,,,,,F0101,blue,b,50,2023-09-28_15h30.58.184,Ownership,2023.1.2,60.05064671484583,
2,EPS,S,n,n,2,0,2,0,0,15,15,15,b,,blue,,,,,,6,924.4838548999978,930.5194322999996,80,EPS,b,stim_80_b_u.jpg,test,930.5194322999996,None,,,,,F0101,blue,b,50,2023-09-28_15h30.58.184,Ownership,2023.1.2,60.05064671484583,
1,EPS,O,n,n,2,0,2,0,0,16,16,16,b,,blue,,,,,,2,933.0091078000005,935.0552972999976,75,EPS,y,stim_75_y_u.jpg,test,935.0552972999976,None,,,,,F0101,blue,b,50,2023-09-28_15h30.58.184,Ownership,2023.1.2,60.05064671484583,
1,PPS,O,n,n,2,0,2,0,0,17,17,17,b,,blue,,,,,,4,937.5381419999976,941.5744749999976,25,PPS,y,stim_25_y_u.jpg,test,941.5744749999976,None,,,,,F0101,blue,b,50,2023-09-28_15h30.58.184,Ownership,2023.1.2,60.05064671484583,
1,PPS,O,n,n,2,0,2,0,0,18,18,18,b,,blue,,,,,,2,944.0653265999972,946.1065323000003,25,PPS,y,stim_25_y_u.jpg,test,946.1065323000003,None,,,,,F0101,blue,b,50,2023-09-28_15h30.58.184,Ownership,2023.1.2,60.05064671484583,
2,PPS,O,n,n,2,0,2,0,0,19,19,19,b,,blue,,,,,,10,948.5949811999999,958.6328947000002,30,PPS,y,stim_30_y_u.jpg,test,958.6328947000002,None,,,,,F0101,blue,b,50,2023-09-28_15h30.58.184,Ownership,2023.1.2,60.05064671484583,
2,EPS,S,n,n,2,0,2,0,0,20,20,20,b,,blue,,,,,,4,961.1161293000005,965.1590655,80,EPS,b,stim_80_b_u.jpg,test,965.1590655,None,,,,,F0101,blue,b,50,2023-09-28_15h30.58.184,Ownership,2023.1.2,60.05064671484583,
2,EPS,O,n,n,2,0,2,0,0,21,21,21,b,,blue,,,,,,2,967.643329399998,969.6835482999995,80,EPS,y,stim_80_y_u.jpg,test,969.6835482999995,None,,,,,F0101,blue,b,50,2023-09-28_15h30.58.184,Ownership,2023.1.2,60.05064671484583,
2,EPS,S,y,n,2,0,2,0,0,22,22,22,b,,blue,,,,,,8,972.1730214999989,980.2127518999987,80,EPS,b,stim_80_b_u.jpg,filler,980.2127518999987,None,982.6931444999973,982.6931444999973,,,F0101,blue,b,50,2023-09-28_15h30.58.184,Ownership,2023.1.2,60.05064671484583,
2,BOUND,S,n,n,2,0,2,0,0,23,23,23,b,,blue,,,,,,4,983.8947651999988,987.937160999998,80,BOUND,b,stim_80_b_u.jpg,test,987.937160999998,None,,,,,F0101,blue,b,50,2023-09-28_15h30.58.184,Ownership,2023.1.2,60.05064671484583,
2,PPS,O,n,n,2,0,2,0,0,24,24,24,b,,blue,,,,,,10,990.4223845999986,1000.4561264999975,30,PPS,y,stim_30_y_u.jpg,test,1000.4561264999975,None,,,,,F0101,blue,b,50,2023-09-28_15h30.58.184,Ownership,2023.1.2,60.05064671484583,
2,PPS,O,n,n,2,0,2,0,0,25,25,25,b,,blue,,,,,,2,1002.9439848000002,1004.9823866999977,30,PPS,y,stim_30_y_u.jpg,test,1004.9823866999977,None,,,,,F0101,blue,b,50,2023-09-28_15h30.58.184,Ownership,2023.1.2,60.05064671484583,
1,PPS,S,n,n,2,0,2,0,0,26,26,26,b,,blue,,,,,,4,1007.4729397999981,1011.5171138999976,25,PPS,b,stim_25_b_u.jpg,test,1011.5171138999976,None,,,,,F0101,blue,b,50,2023-09-28_15h30.58.184,Ownership,2023.1.2,60.05064671484583,
2,EPS,S,n,n,2,0,2,0,0,27,27,27,b,,blue,,,,,,4,1014.0001592999979,1018.0443849999974,80,EPS,b,stim_80_b_u.jpg,test,1018.0443849999974,None,,,,,F0101,blue,b,50,2023-09-28_15h30.58.184,Ownership,2023.1.2,60.05064671484583,
1,PPS,S,n,n,2,0,2,0,0,28,28,28,b,,blue,,,,,,4,1020.527442999999,1024.5720116999983,25,PPS,b,stim_25_b_u.jpg,test,1024.5720116999983,None,,,,,F0101,blue,b,50,2023-09-28_15h30.58.184,Ownership,2023.1.2,60.05064671484583,
3,BOUND,S,y,n,2,0,2,0,0,29,29,29,b,,blue,,,,,,2,1027.0545686999976,1029.0941353999988,25,BOUND,b,stim_25_b_u.jpg,filler,1029.0941353999988,None,1031.5808374999979,1031.5808374999979,,,F0101,blue,b,50,2023-09-28_15h30.58.184,Ownership,2023.1.2,60.05064671484583,
1,PPS,S,n,n,2,0,2,0,0,30,30,30,b,,blue,,,,,,4,1032.7824125999978,1036.8240621999976,25,PPS,b,stim_25_b_u.jpg,test,1036.8240621999976,None,,,,,F0101,blue,b,50,2023-09-28_15h30.58.184,Ownership,2023.1.2,60.05064671484583,
2,PPS,S,n,n,2,0,2,0,0,31,31,31,b,,blue,,,,,,2,1039.3096671999992,1041.3528479999986,30,PPS,b,stim_30_b_u.jpg,test,1041.3528479999986,None,,,,,F0101,blue,b,50,2023-09-28_15h30.58.184,Ownership,2023.1.2,60.05064671484583,
3,BOUND,O,n,n,2,0,2,0,0,32,32,32,b,,blue,,,,,,2,1043.838991499997,1045.8780167999976,30,BOUND,y,stim_30_y_u.jpg,test,1045.8780167999976,None,,,,,F0101,blue,b,50,2023-09-28_15h30.58.184,Ownership,2023.1.2,60.05064671484583,
2,PPS,S,n,n,2,0,2,0,0,33,33,33,b,,blue,,,,,,2,1048.3681101999973,1050.3995818999974,30,PPS,b,stim_30_b_u.jpg,test,1050.3995818999974,None,,,,,F0101,blue,b,50,2023-09-28_15h30.58.184,Ownership,2023.1.2,60.05064671484583,
2,PPS,S,n,n,2,0,2,0,0,34,34,34,b,,blue,,,,,,2,1052.8803181000003,1054.9187454999992,30,PPS,b,stim_30_b_u.jpg,test,1054.9187454999992,None,,,,,F0101,blue,b,50,2023-09-28_15h30.58.184,Ownership,2023.1.2,60.05064671484583,
2,EPS,O,n,n,2,0,2,0,0,35,35,35,b,,blue,,,,,,10,1057.4095455999995,1067.4472075999984,80,EPS,y,stim_80_y_u.jpg,test,1067.4472075999984,None,,,,,F0101,blue,b,50,2023-09-28_15h30.58.184,Ownership,2023.1.2,60.05064671484583,
1,PPS,O,y,n,2,0,2,0,0,36,36,36,b,,blue,,,,,,4,1069.9313067999974,1073.9773418999976,25,PPS,y,stim_25_y_u.jpg,filler,1073.9773418999976,None,1076.4556195000005,1076.4556195000005,,,F0101,blue,b,50,2023-09-28_15h30.58.184,Ownership,2023.1.2,60.05064671484583,
2,EPS,O,n,n,2,0,2,0,0,37,37,37,b,,blue,,,,,,2,1077.657660599998,1079.7031800999976,80,EPS,y,stim_80_y_u.jpg,test,1079.7031800999976,None,,,,,F0101,blue,b,50,2023-09-28_15h30.58.184,Ownership,2023.1.2,60.05064671484583,
3,EPS,S,n,n,2,0,2,0,0,38,38,38,b,,blue,,,,,,2,1082.1865223999994,1084.2327055999995,85,EPS,b,stim_85_b_u.jpg,test,1084.2327055999995,None,,,,,F0101,blue,b,50,2023-09-28_15h30.58.184,Ownership,2023.1.2,60.05064671484583,
2,EPS,O,n,n,2,0,2,0,0,39,39,39,b,,blue,,,,,,4,1086.715895199999,1090.7581777999985,80,EPS,y,stim_80_y_u.jpg,test,1090.7581777999985,None,,,,,F0101,blue,b,50,2023-09-28_15h30.58.184,Ownership,2023.1.2,60.05064671484583,
1,BOUND,S,n,n,2,0,2,0,0,40,40,40,b,,blue,,,,,,2,1093.2427989999996,1095.2840154000005,80,BOUND,b,stim_80_b_u.jpg,test,1095.2840154000005,None,,,,,F0101,blue,b,50,2023-09-28_15h30.58.184,Ownership,2023.1.2,60.05064671484583,
2,PPS,O,n,n,2,0,2,0,0,41,41,41,b,,blue,,,,,,4,1097.7718681000006,1101.8149185999973,30,PPS,y,stim_30_y_u.jpg,test,1101.8149185999973,None,,,,,F0101,blue,b,50,2023-09-28_15h30.58.184,Ownership,2023.1.2,60.05064671484583,
3,PPS,O,n,n,2,0,2,0,0,42,42,42,b,,blue,,,,,,4,1104.2991355999984,1108.341880699998,35,PPS,y,stim_35_y_u.jpg,test,1108.341880699998,None,,,,,F0101,blue,b,50,2023-09-28_15h30.58.184,Ownership,2023.1.2,60.05064671484583,
2,PPS,S,n,n,2,0,2,0,0,43,43,43,b,,blue,,,,,,2,1110.8266427999988,1112.866470699999,30,PPS,b,stim_30_b_u.jpg,test,1112.866470699999,None,,,,,F0101,blue,b,50,2023-09-28_15h30.58.184,Ownership,2023.1.2,60.05064671484583,
3,EPS,O,n,n,2,0,2,0,0,44,44,44,b,,blue,,,,,,2,1115.3555390999973,1117.3955854999986,85,EPS,y,stim_85_y_u.jpg,test,1117.3955854999986,None,,,,,F0101,blue,b,50,2023-09-28_15h30.58.184,Ownership,2023.1.2,60.05064671484583,
3,EPS,O,n,n,2,0,2,0,0,45,45,45,b,,blue,,,,,,6,1119.8845177999974,1125.9253575999974,85,EPS,y,stim_85_y_u.jpg,test,1125.9253575999974,None,,,,,F0101,blue,b,50,2023-09-28_15h30.58.184,Ownership,2023.1.2,60.05064671484583,
3,EPS,S,n,n,2,0,2,0,0,46,46,46,b,,blue,,,,,,2,1128.4101117999999,1130.4591619999992,85,EPS,b,stim_85_b_u.jpg,test,1130.4591619999992,None,,,,,F0101,blue,b,50,2023-09-28_15h30.58.184,Ownership,2023.1.2,60.05064671484583,
3,EPS,O,n,n,2,0,2,0,0,47,47,47,b,,blue,,,,,,2,1132.9392450999985,1134.9804970000005,85,EPS,y,stim_85_y_u.jpg,test,1134.9804970000005,None,,,,,F0101,blue,b,50,2023-09-28_15h30.58.184,Ownership,2023.1.2,60.05064671484583,
3,PPS,S,n,n,2,0,2,0,0,48,48,48,b,,blue,,,,,,4,1137.4682500999988,1141.5088679999972,35,PPS,b,stim_35_b_u.jpg,test,1141.5088679999972,None,,,,,F0101,blue,b,50,2023-09-28_15h30.58.184,Ownership,2023.1.2,60.05064671484583,
3,PPS,S,n,n,2,0,2,0,0,49,49,49,b,,blue,,,,,,2,1143.9955669999981,1146.0362585000003,35,PPS,b,stim_35_b_u.jpg,test,1146.0362585000003,None,,,,,F0101,blue,b,50,2023-09-28_15h30.58.184,Ownership,2023.1.2,60.05064671484583,
2,BOUND,O,y,n,2,0,2,0,0,50,50,50,b,,blue,,,,,,2,1148.5244873999982,1150.5673495999981,35,BOUND,y,stim_35_y_u.jpg,filler,1150.5673495999981,None,1153.0507502999972,1153.0507502999972,,,F0101,blue,b,50,2023-09-28_15h30.58.184,Ownership,2023.1.2,60.05064671484583,
3,PPS,O,n,n,2,0,2,0,0,51,51,51,b,,blue,,,,,,6,1154.2524233999975,1160.295305399999,35,PPS,y,stim_35_y_u.jpg,test,1160.295305399999,None,,,,,F0101,blue,b,50,2023-09-28_15h30.58.184,Ownership,2023.1.2,60.05064671484583,
3,EPS,S,n,n,2,0,2,0,0,52,52,52,b,,blue,,,,,,2,1162.7780232999976,1164.816152899999,85,EPS,b,stim_85_b_u.jpg,test,1164.816152899999,None,,,,,F0101,blue,b,50,2023-09-28_15h30.58.184,Ownership,2023.1.2,60.05064671484583,
3,BOUND,O,n,n,2,0,2,0,0,53,53,53,b,,blue,,,,,,6,1167.3070181000003,1173.343229799997,85,BOUND,y,stim_85_y_u.jpg,test,1173.343229799997,None,,,,,F0101,blue,b,50,2023-09-28_15h30.58.184,Ownership,2023.1.2,60.05064671484583,
3,EPS,S,n,n,2,0,2,0,0,54,54,54,b,,blue,,,,,,4,1175.8323523,1179.8728374999992,85,EPS,b,stim_85_b_u.jpg,test,1179.8728374999992,None,,,,,F0101,blue,b,50,2023-09-28_15h30.58.184,Ownership,2023.1.2,60.05064671484583,
3,EPS,O,n,n,2,0,2,0,0,55,55,55,b,,blue,,,,,,4,1182.3596091,1186.3970955999976,85,EPS,y,stim_85_y_u.jpg,test,1186.3970955999976,None,,,,,F0101,blue,b,50,2023-09-28_15h30.58.184,Ownership,2023.1.2,60.05064671484583,
3,PPS,O,n,n,2,0,2,0,0,56,56,56,b,,blue,,,,,,4,1188.8872512999988,1192.9276508000003,35,PPS,y,stim_35_y_u.jpg,test,1192.9276508000003,None,,,,,F0101,blue,b,50,2023-09-28_15h30.58.184,Ownership,2023.1.2,60.05064671484583,
3,PPS,S,n,n,2,0,2,0,0,57,57,57,b,,blue,,,,,,4,1195.4141419999978,1199.4511988999984,35,PPS,b,stim_35_b_u.jpg,test,1199.4511988999984,None,,,,,F0101,blue,b,50,2023-09-28_15h30.58.184,Ownership,2023.1.2,60.05064671484583,
3,PPS,S,n,n,2,0,2,0,0,58,58,58,b,,blue,,,,,,2,1201.9414885000006,1203.9806537000004,35,PPS,b,stim_35_b_u.jpg,test,1203.9806537000004,None,,,,,F0101,blue,b,50,2023-09-28_15h30.58.184,Ownership,2023.1.2,60.05064671484583,
3,PPS,O,n,n,2,0,2,0,0,59,59,59,b,,blue,,,,,,2,1206.4705353999998,1208.509677099999,35,PPS,y,stim_35_y_u.jpg,test,1208.509677099999,None,,,,,F0101,blue,b,50,2023-09-28_15h30.58.184,Ownership,2023.1.2,60.05064671484583,
1,EPS,O,n,n,3,0,3,0,0,0,0,0,b,,blue,,,,,,2,1210.999591599997,1213.0436582000002,75,EPS,y,stim_75_y_u.jpg,test,1213.0436582000002,None,,,,,F0101,blue,b,50,2023-09-28_15h30.58.184,Ownership,2023.1.2,60.05064671484583,
1,EPS,S,n,n,3,0,3,0,0,1,1,1,b,,blue,,,,,,2,1215.528593199997,1217.5679084999974,75,EPS,b,stim_75_b_u.jpg,test,1217.5679084999974,None,,,,,F0101,blue,b,50,2023-09-28_15h30.58.184,Ownership,2023.1.2,60.05064671484583,
1,PPS,S,n,n,3,0,3,0,0,2,2,2,b,,blue,,,,,,2,1220.0580526999984,1222.0969258000005,25,PPS,b,stim_25_b_u.jpg,test,1222.0969258000005,None,,,,,F0101,blue,b,50,2023-09-28_15h30.58.184,Ownership,2023.1.2,60.05064671484583,
1,EPS,O,n,n,3,0,3,0,0,3,3,3,b,,blue,,,,,,6,1224.5874106999981,1230.6230818000004,75,EPS,y,stim_75_y_u.jpg,test,1230.6230818000004,None,,,,,F0101,blue,b,50,2023-09-28_15h30.58.184,Ownership,2023.1.2,60.05064671484583,
1,PPS,O,n,n,3,0,3,0,0,4,4,4,b,,blue,,,,,,6,1233.1123587000002,1239.1545389999992,25,PPS,y,stim_25_y_u.jpg,test,1239.1545389999992,None,,,,,F0101,blue,b,50,2023-09-28_15h30.58.184,Ownership,2023.1.2,60.05064671484583,
2,BOUND,S,y,n,3,0,3,0,0,5,5,5,b,,blue,,,,,,2,1241.6377716999996,1243.6761426999983,25,BOUND,b,stim_25_b_u.jpg,filler,1243.6761426999983,None,1246.163879599997,1246.163879599997,,,F0101,blue,b,50,2023-09-28_15h30.58.184,Ownership,2023.1.2,60.05064671484583,
1,PPS,S,n,n,3,0,3,0,0,6,6,6,b,,blue,,,,,,4,1247.3654653999984,1251.4132185999988,25,PPS,b,stim_25_b_u.jpg,test,1251.4132185999988,None,,,,,F0101,blue,b,50,2023-09-28_15h30.58.184,Ownership,2023.1.2,60.05064671484583,
1,PPS,O,n,n,3,0,3,0,0,7,7,7,b,,blue,,,,,,2,1253.8928315999983,1255.9327104000004,25,PPS,y,stim_25_y_u.jpg,test,1255.9327104000004,None,,,,,F0101,blue,b,50,2023-09-28_15h30.58.184,Ownership,2023.1.2,60.05064671484583,
1,EPS,O,n,n,3,0,3,0,0,8,8,8,b,,blue,,,,,,2,1258.4219594999995,1260.460776099997,75,EPS,y,stim_75_y_u.jpg,test,1260.460776099997,None,,,,,F0101,blue,b,50,2023-09-28_15h30.58.184,Ownership,2023.1.2,60.05064671484583,
1,PPS,S,n,n,3,0,3,0,0,9,9,9,b,,blue,,,,,,12,1262.9509094999994,1274.9915894000005,25,PPS,b,stim_25_b_u.jpg,test,1274.9915894000005,None,,,,,F0101,blue,b,50,2023-09-28_15h30.58.184,Ownership,2023.1.2,60.05064671484583,
3,BOUND,O,n,n,3,0,3,0,0,10,10,10,b,,blue,,,,,,4,1277.4709932999976,1281.509519799998,25,BOUND,y,stim_25_y_u.jpg,test,1281.509519799998,None,,,,,F0101,blue,b,50,2023-09-28_15h30.58.184,Ownership,2023.1.2,60.05064671484583,
1,EPS,O,n,n,3,0,3,0,0,11,11,11,b,,blue,,,,,,2,1283.998484599997,1286.0372518000004,75,EPS,y,stim_75_y_u.jpg,test,1286.0372518000004,None,,,,,F0101,blue,b,50,2023-09-28_15h30.58.184,Ownership,2023.1.2,60.05064671484583,
1,EPS,S,y,n,3,0,3,0,0,12,12,12,b,,blue,,,,,,2,1288.5270259999998,1290.569099999997,75,EPS,b,stim_75_b_u.jpg,filler,1290.569099999997,None,1293.0535244999992,1293.0535244999992,,,F0101,blue,b,50,2023-09-28_15h30.58.184,Ownership,2023.1.2,60.05064671484583,
1,BOUND,S,n,n,3,0,3,0,0,13,13,13,b,,blue,,,,,,4,1294.255376699999,1298.2932989,75,BOUND,b,stim_75_b_u.jpg,test,1298.2932989,None,,,,,F0101,blue,b,50,2023-09-28_15h30.58.184,Ownership,2023.1.2,60.05064671484583,
1,PPS,O,n,n,3,0,3,0,0,14,14,14,b,,blue,,,,,,2,1300.7826798999995,1302.8252164999976,25,PPS,y,stim_25_y_u.jpg,test,1302.8252164999976,None,,,,,F0101,blue,b,50,2023-09-28_15h30.58.184,Ownership,2023.1.2,60.05064671484583,
2,EPS,O,n,n,3,0,3,0,0,15,15,15,b,,blue,,,,,,6,1305.3115158,1311.3541903999976,80,EPS,y,stim_80_y_u.jpg,test,1311.3541903999976,None,,,,,F0101,blue,b,50,2023-09-28_15h30.58.184,Ownership,2023.1.2,60.05064671484583,
1,EPS,O,y,n,3,0,3,0,0,16,16,16,b,,blue,,,,,,2,1313.8367728999983,1315.8839964,75,EPS,y,stim_75_y_u.jpg,filler,1315.8839964,None,1318.3632971999978,1318.3632971999978,,,F0101,blue,b,50,2023-09-28_15h30.58.184,Ownership,2023.1.2,60.05064671484583,
1,PPS,O,n,n,3,0,3,0,0,17,17,17,b,,blue,,,,,,4,1319.5649097999994,1323.6059399000005,25,PPS,y,stim_25_y_u.jpg,test,1323.6059399000005,None,,,,,F0101,blue,b,50,2023-09-28_15h30.58.184,Ownership,2023.1.2,60.05064671484583,
1,BOUND,S,n,n,3,0,3,0,0,18,18,18,b,,blue,,,,,,2,1326.0921296999986,1328.134101399999,25,BOUND,b,stim_25_b_u.jpg,test,1328.134101399999,None,,,,,F0101,blue,b,50,2023-09-28_15h30.58.184,Ownership,2023.1.2,60.05064671484583,
1,PPS,O,y,n,3,0,3,0,0,19,19,19,b,,blue,,,,,,10,1330.6212244999988,1340.6614923999987,25,PPS,y,stim_25_y_u.jpg,filler,1340.6614923999987,None,1343.1400744999992,1343.1400744999992,,,F0101,blue,b,50,2023-09-28_15h30.58.184,Ownership,2023.1.2,60.05064671484583,
2,PPS,O,n,n,3,0,3,0,0,20,20,20,b,,blue,,,,,,4,1344.3417138000004,1348.3800482999977,30,PPS,y,stim_30_y_u.jpg,test,1348.3800482999977,None,,,,,F0101,blue,b,50,2023-09-28_15h30.58.184,Ownership,2023.1.2,60.05064671484583,
2,EPS,O,n,n,3,0,3,0,0,21,21,21,b,,blue,,,,,,2,1350.8691669,1352.9092082999996,80,EPS,y,stim_80_y_u.jpg,test,1352.9092082999996,None,,,,,F0101,blue,b,50,2023-09-28_15h30.58.184,Ownership,2023.1.2,60.05064671484583,
1,EPS,S,n,n,3,0,3,0,0,22,22,22,b,,blue,,,,,,8,1355.3983004000002,1363.4366187999985,75,EPS,b,stim_75_b_u.jpg,test,1363.4366187999985,None,,,,,F0101,blue,b,50,2023-09-28_15h30.58.184,Ownership,2023.1.2,60.05064671484583,
1,EPS,S,n,n,3,0,3,0,0,23,23,23,b,,blue,,,,,,4,1365.9216124999984,1369.9727165000004,75,EPS,b,stim_75_b_u.jpg,test,1369.9727165000004,None,,,,,F0101,blue,b,50,2023-09-28_15h30.58.184,Ownership,2023.1.2,60.05064671484583,
2,PPS,O,n,n,3,0,3,0,0,24,24,24,b,,blue,,,,,,10,1372.449110999998,1382.4915024000002,30,PPS,y,stim_30_y_u.jpg,test,1382.4915024000002,None,,,,,F0101,blue,b,50,2023-09-28_15h30.58.184,Ownership,2023.1.2,60.05064671484583,
1,PPS,S,n,n,3,0,3,0,0,25,25,25,b,,blue,,,,,,2,1384.970951899999,1387.0161893000004,25,PPS,b,stim_25_b_u.jpg,test,1387.0161893000004,None,,,,,F0101,blue,b,50,2023-09-28_15h30.58.184,Ownership,2023.1.2,60.05064671484583,
2,PPS,O,n,n,3,0,3,0,0,26,26,26,b,,blue,,,,,,4,1389.4997094999999,1393.5498601,30,PPS,y,stim_30_y_u.jpg,test,1393.5498601,None,,,,,F0101,blue,b,50,2023-09-28_15h30.58.184,Ownership,2023.1.2,60.05064671484583,
2,PPS,O,n,n,3,0,3,0,0,27,27,27,b,,blue,,,,,,4,1396.0267363999992,1400.066165799999,30,PPS,y,stim_30_y_u.jpg,test,1400.066165799999,None,,,,,F0101,blue,b,50,2023-09-28_15h30.58.184,Ownership,2023.1.2,60.05064671484583,
3,BOUND,O,n,n,3,0,3,0,0,28,28,28,b,,blue,,,,,,4,1402.554156299997,1406.601708099999,30,BOUND,y,stim_30_y_u.jpg,test,1406.601708099999,None,,,,,F0101,blue,b,50,2023-09-28_15h30.58.184,Ownership,2023.1.2,60.05064671484583,
2,PPS,S,n,n,3,0,3,0,0,29,29,29,b,,blue,,,,,,2,1409.081350299999,1411.125855299997,30,PPS,b,stim_30_b_u.jpg,test,1411.125855299997,None,,,,,F0101,blue,b,50,2023-09-28_15h30.58.184,Ownership,2023.1.2,60.05064671484583,
2,EPS,O,n,n,3,0,3,0,0,30,30,30,b,,blue,,,,,,4,1413.6105067999997,1417.6501433999983,80,EPS,y,stim_80_y_u.jpg,test,1417.6501433999983,None,,,,,F0101,blue,b,50,2023-09-28_15h30.58.184,Ownership,2023.1.2,60.05064671484583,
3,PPS,S,y,n,3,0,3,0,0,31,31,31,b,,blue,,,,,,2,1420.1376973000006,1422.1783709999982,35,PPS,b,stim_35_b_u.jpg,filler,1422.1783709999982,None,1424.6639397,1424.6639397,,,F0101,blue,b,50,2023-09-28_15h30.58.184,Ownership,2023.1.2,60.05064671484583,
2,PPS,S,n,n,3,0,3,0,0,32,32,32,b,,blue,,,,,,2,1425.865587799999,1427.9588896999994,30,PPS,b,stim_30_b_u.jpg,test,1427.9588896999994,None,,,,,F0101,blue,b,50,2023-09-28_15h30.58.184,Ownership,2023.1.2,60.05064671484583,
2,PPS,S,n,n,3,0,3,0,0,33,33,33,b,,blue,,,,,,2,1430.394738699997,1432.4382017999997,30,PPS,b,stim_30_b_u.jpg,test,1432.4382017999997,None,,,,,F0101,blue,b,50,2023-09-28_15h30.58.184,Ownership,2023.1.2,60.05064671484583,
3,PPS,O,n,n,3,0,3,0,0,34,34,34,b,,blue,,,,,,2,1434.9237367999995,1436.966963499999,35,PPS,y,stim_35_y_u.jpg,test,1436.966963499999,None,,,,,F0101,blue,b,50,2023-09-28_15h30.58.184,Ownership,2023.1.2,60.05064671484583,
1,EPS,S,n,n,3,0,3,0,0,35,35,35,b,,blue,,,,,,10,1439.453341999997,1449.4903632999994,75,EPS,b,stim_75_b_u.jpg,test,1449.4903632999994,None,,,,,F0101,blue,b,50,2023-09-28_15h30.58.184,Ownership,2023.1.2,60.05064671484583,
2,EPS,O,n,n,3,0,3,0,0,36,36,36,b,,blue,,,,,,4,1451.9745571999993,1456.0169682999986,80,EPS,y,stim_80_y_u.jpg,test,1456.0169682999986,None,,,,,F0101,blue,b,50,2023-09-28_15h30.58.184,Ownership,2023.1.2,60.05064671484583,
3,PPS,O,n,n,3,0,3,0,0,37,37,37,b,,blue,,,,,,2,1458.5019336999976,1460.5409250999983,35,PPS,y,stim_35_y_u.jpg,test,1460.5409250999983,None,,,,,F0101,blue,b,50,2023-09-28_15h30.58.184,Ownership,2023.1.2,60.05064671484583,
2,EPS,S,n,n,3,0,3,0,0,38,38,38,b,,blue,,,,,,2,1463.0310050999979,1465.0696336999972,80,EPS,b,stim_80_b_u.jpg,test,1465.0696336999972,None,,,,,F0101,blue,b,50,2023-09-28_15h30.58.184,Ownership,2023.1.2,60.05064671484583,
2,EPS,S,n,n,3,0,3,0,0,39,39,39,b,,blue,,,,,,4,1467.5600909999994,1471.5974384999972,80,EPS,b,stim_80_b_u.jpg,test,1471.5974384999972,None,,,,,F0101,blue,b,50,2023-09-28_15h30.58.184,Ownership,2023.1.2,60.05064671484583,
3,EPS,O,n,n,3,0,3,0,0,40,40,40,b,,blue,,,,,,2,1474.0873245999974,1476.1252496999987,85,EPS,y,stim_85_y_u.jpg,test,1476.1252496999987,None,,,,,F0101,blue,b,50,2023-09-28_15h30.58.184,Ownership,2023.1.2,60.05064671484583,
2,EPS,S,n,n,3,0,3,0,0,41,41,41,b,,blue,,,,,,4,1478.6163216999994,1482.6599571999977,80,EPS,b,stim_80_b_u.jpg,test,1482.6599571999977,None,,,,,F0101,blue,b,50,2023-09-28_15h30.58.184,Ownership,2023.1.2,60.05064671484583,
2,EPS,S,n,n,3,0,3,0,0,42,42,42,b,,blue,,,,,,4,1485.143966399999,1489.180957499997,80,EPS,b,stim_80_b_u.jpg,test,1489.180957499997,None,,,,,F0101,blue,b,50,2023-09-28_15h30.58.184,Ownership,2023.1.2,60.05064671484583,
1,BOUND,O,n,n,3,0,3,0,0,43,43,43,b,,blue,,,,,,2,1491.670967799997,1493.7093805000004,80,BOUND,y,stim_80_y_u.jpg,test,1493.7093805000004,None,,,,,F0101,blue,b,50,2023-09-28_15h30.58.184,Ownership,2023.1.2,60.05064671484583,
2,PPS,S,n,n,3,0,3,0,0,44,44,44,b,,blue,,,,,,2,1496.199990099998,1498.2388355000003,30,PPS,b,stim_30_b_u.jpg,test,1498.2388355000003,None,,,,,F0101,blue,b,50,2023-09-28_15h30.58.184,Ownership,2023.1.2,60.05064671484583,
3,EPS,O,n,n,3,0,3,0,0,45,45,45,b,,blue,,,,,,6,1500.7293812999997,1506.7642807999982,85,EPS,y,stim_85_y_u.jpg,test,1506.7642807999982,None,,,,,F0101,blue,b,50,2023-09-28_15h30.58.184,Ownership,2023.1.2,60.05064671484583,
3,EPS,O,n,n,3,0,3,0,0,46,46,46,b,,blue,,,,,,2,1509.2544868999976,1511.2936386999972,85,EPS,y,stim_85_y_u.jpg,test,1511.2936386999972,None,,,,,F0101,blue,b,50,2023-09-28_15h30.58.184,Ownership,2023.1.2,60.05064671484583,
3,PPS,S,n,n,3,0,3,0,0,47,47,47,b,,blue,,,,,,2,1513.7835992999971,1515.822410599998,35,PPS,b,stim_35_b_u.jpg,test,1515.822410599998,None,,,,,F0101,blue,b,50,2023-09-28_15h30.58.184,Ownership,2023.1.2,60.05064671484583,
3,PPS,S,n,n,3,0,3,0,0,48,48,48,b,,blue,,,,,,4,1518.3128481999993,1522.3517482999996,35,PPS,b,stim_35_b_u.jpg,test,1522.3517482999996,None,,,,,F0101,blue,b,50,2023-09-28_15h30.58.184,Ownership,2023.1.2,60.05064671484583,
3,EPS,S,n,n,3,0,3,0,0,49,49,49,b,,blue,,,,,,2,1524.8398981999999,1526.8785485999979,85,EPS,b,stim_85_b_u.jpg,test,1526.8785485999979,None,,,,,F0101,blue,b,50,2023-09-28_15h30.58.184,Ownership,2023.1.2,60.05064671484583,
3,EPS,O,n,n,3,0,3,0,0,50,50,50,b,,blue,,,,,,2,1529.3693867000002,1531.4087809999983,85,EPS,y,stim_85_y_u.jpg,test,1531.4087809999983,None,,,,,F0101,blue,b,50,2023-09-28_15h30.58.184,Ownership,2023.1.2,60.05064671484583,
3,EPS,S,n,n,3,0,3,0,0,51,51,51,b,,blue,,,,,,6,1533.898172899997,1539.9610804000004,85,EPS,b,stim_85_b_u.jpg,test,1539.9610804000004,None,,,,,F0101,blue,b,50,2023-09-28_15h30.58.184,Ownership,2023.1.2,60.05064671484583,
3,EPS,S,n,n,3,0,3,0,0,52,52,52,b,,blue,,,,,,2,1542.4234923999975,1544.4951680999984,85,EPS,b,stim_85_b_u.jpg,test,1544.4951680999984,None,,,,,F0101,blue,b,50,2023-09-28_15h30.58.184,Ownership,2023.1.2,60.05064671484583,
3,PPS,O,n,n,3,0,3,0,0,53,53,53,b,,blue,,,,,,6,1546.9527168999994,1553.0262503999984,35,PPS,y,stim_35_y_u.jpg,test,1553.0262503999984,None,,,,,F0101,blue,b,50,2023-09-28_15h30.58.184,Ownership,2023.1.2,60.05064671484583,
3,BOUND,O,y,n,3,0,3,0,0,54,54,54,b,,blue,,,,,,4,1555.4780514999984,1559.5188587999983,35,BOUND,y,stim_35_y_u.jpg,filler,1559.5188587999983,None,1562.0023887999996,1562.0023887999996,,,F0101,blue,b,50,2023-09-28_15h30.58.184,Ownership,2023.1.2,60.05064671484583,
3,PPS,S,n,n,3,0,3,0,0,55,55,55,b,,blue,,,,,,4,1563.2040875999992,1567.2483665,35,PPS,b,stim_35_b_u.jpg,test,1567.2483665,None,,,,,F0101,blue,b,50,2023-09-28_15h30.58.184,Ownership,2023.1.2,60.05064671484583,
3,PPS,O,n,n,3,0,3,0,0,56,56,56,b,,blue,,,,,,4,1569.731595899997,1573.7756721000005,35,PPS,y,stim_35_y_u.jpg,test,1573.7756721000005,None,,,,,F0101,blue,b,50,2023-09-28_15h30.58.184,Ownership,2023.1.2,60.05064671484583,
3,BOUND,S,n,n,3,0,3,0,0,57,57,57,b,,blue,,,,,,4,1576.2586080999972,1580.3077957999994,35,BOUND,b,stim_35_b_u.jpg,test,1580.3077957999994,None,,,,,F0101,blue,b,50,2023-09-28_15h30.58.184,Ownership,2023.1.2,60.05064671484583,
3,EPS,S,n,n,3,0,3,0,0,58,58,58,b,,blue,,,,,,2,1582.7857640000002,1584.8279954999998,85,EPS,b,stim_85_b_u.jpg,test,1584.8279954999998,None,,,,,F0101,blue,b,50,2023-09-28_15h30.58.184,Ownership,2023.1.2,60.05064671484583,
3,PPS,S,n,n,3,0,3,0,0,59,59,59,b,,blue,,,,,,2,1587.3148733999988,1589.3562214999984,35,PPS,b,stim_35_b_u.jpg,test,1589.3562214999984,None,,,,,F0101,blue,b,50,2023-09-28_15h30.58.184,Ownership,2023.1.2,60.05064671484583,
,,,,,,,,,,,,,b,,blue,,,,,,,,,,,,,,,,,,,,F0101,blue,b,50,2023-09-28_15h30.58.184,Ownership,2023.1.2,60.05064671484583,
,,,,,,,,,,,,,,,,,,,,,,,,,,,,,,,,,1591.8413961999977,1591.8413961999977,,,,,,,,,
