dist,space,own,resp,Midbreak,LoopTask.thisRepN,LoopTask.thisTrialN,LoopTask.thisN,LoopTask.thisIndex,Bloc_1.thisRepN,Bloc_1.thisTrialN,Bloc_1.thisN,Bloc_1.thisIndex,KeyA,KeyB,Owner,Other,key_instruct.started,text_norm_2.started,image.started,picload.started,jitter,Mask_2.started,Mask_2.stopped,pos,space,col,name,trialtype,Stim.started,key_resp.keys,text_2.started,key_resp.started,TextEnd.started,key_instruct_3.started,participant,Owner,KeyA,threshold,date,expName,psychopyVersion,frameRate,
3,PPS,S,n,n,0,0,0,0,0,0,0,0,a,b,yellow,blue,12.220388200017624,12.220388200017624,12.220388200017624,0.04337950004264712,2,138.74252319999505,140.82539360004012,35,PPS,y,stim_35_y_u.jpg,test,140.82539360004012,None,,,,,F0101,yellow,a,50,2023-09-26_17h39.06.230,Ownership,2023.1.2,59.96925976074086,
1,PPS,S,y,n,0,0,0,0,0,1,1,1,a,,yellow,,,,,,2,143.26502869999968,145.30164990003686,25,PPS,y,stim_25_y_u.jpg,filler,145.30164990003686,None,147.77446770004462,147.77446770004462,,,F0101,yellow,a,50,2023-09-26_17h39.06.230,Ownership,2023.1.2,59.96925976074086,
1,PPS,S,n,n,0,0,0,0,0,2,2,2,a,,yellow,,,,,,2,148.9766497000819,151.02247249998618,25,PPS,y,stim_25_y_u.jpg,test,151.02247249998618,None,,,,,F0101,yellow,a,50,2023-09-26_17h39.06.230,Ownership,2023.1.2,59.96925976074086,
1,EPS,S,n,n,0,0,0,0,0,3,3,3,a,,yellow,,,,,,6,153.50605080008972,159.55239149997942,75,EPS,y,stim_75_y_u.jpg,test,159.55239149997942,None,,,,,F0101,yellow,a,50,2023-09-26_17h39.06.230,Ownership,2023.1.2,59.96925976074086,
1,PPS,O,n,n,0,0,0,0,0,4,4,4,a,,yellow,,,,,,6,162.0315263000084,168.07331860007253,25,PPS,b,stim_25_b_u.jpg,test,168.07331860007253,None,,,,,F0101,yellow,a,50,2023-09-26_17h39.06.230,Ownership,2023.1.2,59.96925976074086,
1,PPS,O,n,n,0,0,0,0,0,5,5,5,a,,yellow,,,,,,2,170.55647180008236,172.6021066000685,25,PPS,b,stim_25_b_u.jpg,test,172.6021066000685,None,,,,,F0101,yellow,a,50,2023-09-26_17h39.06.230,Ownership,2023.1.2,59.96925976074086,
1,PPS,S,n,n,0,0,0,0,0,6,6,6,a,,yellow,,,,,,4,175.08946480008308,179.1318000999745,25,PPS,y,stim_25_y_u.jpg,test,179.1318000999745,None,,,,,F0101,yellow,a,50,2023-09-26_17h39.06.230,Ownership,2023.1.2,59.96925976074086,
1,EPS,O,n,n,0,0,0,0,0,7,7,7,a,,yellow,,,,,,2,181.61264080007095,183.65922360005789,75,EPS,b,stim_75_b_u.jpg,test,183.65922360005789,None,,,,,F0101,yellow,a,50,2023-09-26_17h39.06.230,Ownership,2023.1.2,59.96925976074086,
3,BOUND,O,n,n,0,0,0,0,0,8,8,8,a,,yellow,,,,,,2,186.14184549998026,188.1868749000132,75,BOUND,b,stim_75_b_u.jpg,test,188.1868749000132,None,,,,,F0101,yellow,a,50,2023-09-26_17h39.06.230,Ownership,2023.1.2,59.96925976074086,
1,PPS,S,n,n,0,0,0,0,0,9,9,9,a,,yellow,,,,,,12,190.67087899998296,202.7293402000796,25,PPS,y,stim_25_y_u.jpg,test,202.7293402000796,None,,,,,F0101,yellow,a,50,2023-09-26_17h39.06.230,Ownership,2023.1.2,59.96925976074086,
1,PPS,O,n,n,0,0,0,0,0,10,10,10,a,,yellow,,,,,,4,205.19014120008796,209.23634790000506,25,PPS,b,stim_25_b_u.jpg,test,209.23634790000506,None,,,,,F0101,yellow,a,50,2023-09-26_17h39.06.230,Ownership,2023.1.2,59.96925976074086,
3,BOUND,S,y,n,0,0,0,0,0,11,11,11,a,,yellow,,,,,,2,211.71693640004378,213.76430430007167,25,BOUND,y,stim_25_y_u.jpg,filler,213.76430430007167,None,216.24349760008045,216.24349760008045,,,F0101,yellow,a,50,2023-09-26_17h39.06.230,Ownership,2023.1.2,59.96925976074086,
1,BOUND,S,n,n,0,0,0,0,0,12,12,12,a,,yellow,,,,,,2,217.4454145000782,219.49674530001357,25,BOUND,y,stim_25_y_u.jpg,test,219.49674530001357,None,,,,,F0101,yellow,a,50,2023-09-26_17h39.06.230,Ownership,2023.1.2,59.96925976074086,
1,PPS,O,n,n,0,0,0,0,0,13,13,13,a,,yellow,,,,,,4,221.97504940000363,226.02509420004208,25,PPS,b,stim_25_b_u.jpg,test,226.02509420004208,None,,,,,F0101,yellow,a,50,2023-09-26_17h39.06.230,Ownership,2023.1.2,59.96925976074086,
1,EPS,O,n,n,0,0,0,0,0,14,14,14,a,,yellow,,,,,,2,228.50278720003553,230.5508013999788,75,EPS,b,stim_75_b_u.jpg,test,230.5508013999788,None,,,,,F0101,yellow,a,50,2023-09-26_17h39.06.230,Ownership,2023.1.2,59.96925976074086,
1,EPS,S,n,n,0,0,0,0,0,15,15,15,a,,yellow,,,,,,6,233.03081939998083,239.0730755000841,75,EPS,y,stim_75_y_u.jpg,test,239.0730755000841,None,,,,,F0101,yellow,a,50,2023-09-26_17h39.06.230,Ownership,2023.1.2,59.96925976074086,
1,PPS,S,n,n,0,0,0,0,0,16,16,16,a,,yellow,,,,,,2,241.55650599999353,243.6037894000765,25,PPS,y,stim_25_y_u.jpg,test,243.6037894000765,None,,,,,F0101,yellow,a,50,2023-09-26_17h39.06.230,Ownership,2023.1.2,59.96925976074086,
1,EPS,S,n,n,0,0,0,0,0,17,17,17,a,,yellow,,,,,,4,246.0853494000621,250.13128540001344,75,EPS,y,stim_75_y_u.jpg,test,250.13128540001344,None,,,,,F0101,yellow,a,50,2023-09-26_17h39.06.230,Ownership,2023.1.2,59.96925976074086,
2,PPS,O,n,n,0,0,0,0,0,18,18,18,a,,yellow,,,,,,2,252.612709500012,254.6623341999948,30,PPS,b,stim_30_b_u.jpg,test,254.6623341999948,None,,,,,F0101,yellow,a,50,2023-09-26_17h39.06.230,Ownership,2023.1.2,59.96925976074086,
1,EPS,O,y,n,0,0,0,0,0,19,19,19,a,,yellow,,,,,,10,257.1411552000791,267.1856758000795,75,EPS,b,stim_75_b_u.jpg,filler,267.1856758000795,None,269.6601570000639,269.6601570000639,,,F0101,yellow,a,50,2023-09-26_17h39.06.230,Ownership,2023.1.2,59.96925976074086,
2,PPS,S,n,n,0,0,0,0,0,20,20,20,a,,yellow,,,,,,4,270.86235760001,274.91100349999033,30,PPS,y,stim_30_y_u.jpg,test,274.91100349999033,None,,,,,F0101,yellow,a,50,2023-09-26_17h39.06.230,Ownership,2023.1.2,59.96925976074086,
2,PPS,S,n,n,0,0,0,0,0,21,21,21,a,,yellow,,,,,,2,277.3891660000663,279.47202590003144,30,PPS,y,stim_30_y_u.jpg,test,279.47202590003144,None,,,,,F0101,yellow,a,50,2023-09-26_17h39.06.230,Ownership,2023.1.2,59.96925976074086,
2,PPS,O,n,n,0,0,0,0,0,22,22,22,a,,yellow,,,,,,8,281.91865060001146,289.9601566999918,30,PPS,b,stim_30_b_u.jpg,test,289.9601566999918,None,,,,,F0101,yellow,a,50,2023-09-26_17h39.06.230,Ownership,2023.1.2,59.96925976074086,
2,PPS,O,n,n,0,0,0,0,0,23,23,23,a,,yellow,,,,,,4,292.44245010009035,296.4897332000546,30,PPS,b,stim_30_b_u.jpg,test,296.4897332000546,None,,,,,F0101,yellow,a,50,2023-09-26_17h39.06.230,Ownership,2023.1.2,59.96925976074086,
1,EPS,O,n,n,0,0,0,0,0,24,24,24,a,,yellow,,,,,,10,298.9694224999985,309.0114244000288,75,EPS,b,stim_75_b_u.jpg,test,309.0114244000288,None,,,,,F0101,yellow,a,50,2023-09-26_17h39.06.230,Ownership,2023.1.2,59.96925976074086,
2,PPS,O,n,n,0,0,0,0,0,25,25,25,a,,yellow,,,,,,2,311.4905687000137,313.52220140001737,30,PPS,b,stim_30_b_u.jpg,test,313.52220140001737,None,,,,,F0101,yellow,a,50,2023-09-26_17h39.06.230,Ownership,2023.1.2,59.96925976074086,
1,EPS,O,n,n,0,0,0,0,0,26,26,26,a,,yellow,,,,,,4,316.00396410003304,320.05239269998856,75,EPS,b,stim_75_b_u.jpg,test,320.05239269998856,None,,,,,F0101,yellow,a,50,2023-09-26_17h39.06.230,Ownership,2023.1.2,59.96925976074086,
1,EPS,S,n,n,0,0,0,0,0,27,27,27,a,,yellow,,,,,,4,322.53115830000024,326.5791985000251,75,EPS,y,stim_75_y_u.jpg,test,326.5791985000251,None,,,,,F0101,yellow,a,50,2023-09-26_17h39.06.230,Ownership,2023.1.2,59.96925976074086,
2,EPS,S,n,n,0,0,0,0,0,28,28,28,a,,yellow,,,,,,4,329.05771520000417,333.1206488000462,80,EPS,y,stim_80_y_u.jpg,test,333.1206488000462,None,,,,,F0101,yellow,a,50,2023-09-26_17h39.06.230,Ownership,2023.1.2,59.96925976074086,
3,BOUND,O,n,n,0,0,0,0,0,29,29,29,a,,yellow,,,,,,2,335.58539949997794,337.6614988000365,80,BOUND,b,stim_80_b_u.jpg,test,337.6614988000365,None,,,,,F0101,yellow,a,50,2023-09-26_17h39.06.230,Ownership,2023.1.2,59.96925976074086,
2,EPS,S,n,n,0,0,0,0,0,30,30,30,a,,yellow,,,,,,4,340.114558900008,344.21851290005725,80,EPS,y,stim_80_y_u.jpg,test,344.21851290005725,None,,,,,F0101,yellow,a,50,2023-09-26_17h39.06.230,Ownership,2023.1.2,59.96925976074086,
2,EPS,S,n,n,0,0,0,0,0,31,31,31,a,,yellow,,,,,,2,346.64135990000796,348.695185800083,80,EPS,y,stim_80_y_u.jpg,test,348.695185800083,None,,,,,F0101,yellow,a,50,2023-09-26_17h39.06.230,Ownership,2023.1.2,59.96925976074086,
2,EPS,O,n,n,0,0,0,0,0,32,32,32,a,,yellow,,,,,,2,351.17251910001505,353.27964040008374,80,EPS,b,stim_80_b_u.jpg,test,353.27964040008374,None,,,,,F0101,yellow,a,50,2023-09-26_17h39.06.230,Ownership,2023.1.2,59.96925976074086,
2,EPS,O,n,n,0,0,0,0,0,33,33,33,a,,yellow,,,,,,2,355.69997960003093,357.7474586000899,80,EPS,b,stim_80_b_u.jpg,test,357.7474586000899,None,,,,,F0101,yellow,a,50,2023-09-26_17h39.06.230,Ownership,2023.1.2,59.96925976074086,
2,EPS,O,n,n,0,0,0,0,0,34,34,34,a,,yellow,,,,,,2,360.2285744000692,362.27565930003766,80,EPS,b,stim_80_b_u.jpg,test,362.27565930003766,None,,,,,F0101,yellow,a,50,2023-09-26_17h39.06.230,Ownership,2023.1.2,59.96925976074086,
2,EPS,O,n,n,0,0,0,0,0,35,35,35,a,,yellow,,,,,,10,364.7578467000276,374.7991343000904,80,EPS,b,stim_80_b_u.jpg,test,374.7991343000904,None,,,,,F0101,yellow,a,50,2023-09-26_17h39.06.230,Ownership,2023.1.2,59.96925976074086,
3,EPS,O,n,n,0,0,0,0,0,36,36,36,a,,yellow,,,,,,4,377.2794187000254,381.33331880008336,85,EPS,b,stim_85_b_u.jpg,test,381.33331880008336,None,,,,,F0101,yellow,a,50,2023-09-26_17h39.06.230,Ownership,2023.1.2,59.96925976074086,
2,EPS,S,n,n,0,0,0,0,0,37,37,37,a,,yellow,,,,,,2,383.80724880006164,385.8572721000528,80,EPS,y,stim_80_y_u.jpg,test,385.8572721000528,None,,,,,F0101,yellow,a,50,2023-09-26_17h39.06.230,Ownership,2023.1.2,59.96925976074086,
3,PPS,O,n,n,0,0,0,0,0,38,38,38,a,,yellow,,,,,,2,388.3362569999881,390.42720260005444,35,PPS,b,stim_35_b_u.jpg,test,390.42720260005444,None,,,,,F0101,yellow,a,50,2023-09-26_17h39.06.230,Ownership,2023.1.2,59.96925976074086,
3,PPS,O,n,n,0,0,0,0,0,39,39,39,a,,yellow,,,,,,4,392.86738790001255,396.9120876999805,35,PPS,b,stim_35_b_u.jpg,test,396.9120876999805,None,,,,,F0101,yellow,a,50,2023-09-26_17h39.06.230,Ownership,2023.1.2,59.96925976074086,
1,BOUND,O,y,n,0,0,0,0,0,40,40,40,a,,yellow,,,,,,2,399.3921261000214,401.42349610000383,35,BOUND,b,stim_35_b_u.jpg,filler,401.42349610000383,None,403.9015668000793,403.9015668000793,,,F0101,yellow,a,50,2023-09-26_17h39.06.230,Ownership,2023.1.2,59.96925976074086,
3,EPS,O,n,n,0,0,0,0,0,41,41,41,a,,yellow,,,,,,4,405.1035681000212,409.15232270001434,85,EPS,b,stim_85_b_u.jpg,test,409.15232270001434,None,,,,,F0101,yellow,a,50,2023-09-26_17h39.06.230,Ownership,2023.1.2,59.96925976074086,
3,EPS,O,n,n,0,0,0,0,0,42,42,42,a,,yellow,,,,,,4,411.63096820004284,415.72820380004123,85,EPS,b,stim_85_b_u.jpg,test,415.72820380004123,None,,,,,F0101,yellow,a,50,2023-09-26_17h39.06.230,Ownership,2023.1.2,59.96925976074086,
2,PPS,S,n,n,0,0,0,0,0,43,43,43,a,,yellow,,,,,,2,418.15802009997424,420.2065151000861,30,PPS,y,stim_30_y_u.jpg,test,420.2065151000861,None,,,,,F0101,yellow,a,50,2023-09-26_17h39.06.230,Ownership,2023.1.2,59.96925976074086,
2,PPS,S,n,n,0,0,0,0,0,44,44,44,a,,yellow,,,,,,2,422.6874523999868,424.7359825000167,30,PPS,y,stim_30_y_u.jpg,test,424.7359825000167,None,,,,,F0101,yellow,a,50,2023-09-26_17h39.06.230,Ownership,2023.1.2,59.96925976074086,
2,BOUND,S,n,n,0,0,0,0,0,45,45,45,a,,yellow,,,,,,6,427.21630470000673,433.30998770007864,30,BOUND,y,stim_30_y_u.jpg,test,433.30998770007864,None,,,,,F0101,yellow,a,50,2023-09-26_17h39.06.230,Ownership,2023.1.2,59.96925976074086,
3,EPS,S,n,n,0,0,0,0,0,46,46,46,a,,yellow,,,,,,2,435.7427769000642,437.83953940006904,85,EPS,y,stim_85_y_u.jpg,test,437.83953940006904,None,,,,,F0101,yellow,a,50,2023-09-26_17h39.06.230,Ownership,2023.1.2,59.96925976074086,
3,PPS,S,n,n,0,0,0,0,0,47,47,47,a,,yellow,,,,,,2,440.27155820000917,442.32026250008494,35,PPS,y,stim_35_y_u.jpg,test,442.32026250008494,None,,,,,F0101,yellow,a,50,2023-09-26_17h39.06.230,Ownership,2023.1.2,59.96925976074086,
2,PPS,O,y,n,0,0,0,0,0,48,48,48,a,,yellow,,,,,,4,444.7996304000262,448.88057879998814,30,PPS,b,stim_30_b_u.jpg,filler,448.88057879998814,None,451.3239790999796,451.3239790999796,,,F0101,yellow,a,50,2023-09-26_17h39.06.230,Ownership,2023.1.2,59.96925976074086,
3,PPS,S,n,n,0,0,0,0,0,49,49,49,a,,yellow,,,,,,2,452.52590250002686,454.57499530003406,35,PPS,y,stim_35_y_u.jpg,test,454.57499530003406,None,,,,,F0101,yellow,a,50,2023-09-26_17h39.06.230,Ownership,2023.1.2,59.96925976074086,
2,BOUND,O,n,n,0,0,0,0,0,50,50,50,a,,yellow,,,,,,2,457.05577480001375,459.09938080003485,35,BOUND,b,stim_35_b_u.jpg,test,459.09938080003485,None,,,,,F0101,yellow,a,50,2023-09-26_17h39.06.230,Ownership,2023.1.2,59.96925976074086,
3,PPS,S,n,n,0,0,0,0,0,51,51,51,a,,yellow,,,,,,6,461.5849285000004,467.67252690007444,35,PPS,y,stim_35_y_u.jpg,test,467.67252690007444,None,,,,,F0101,yellow,a,50,2023-09-26_17h39.06.230,Ownership,2023.1.2,59.96925976074086,
3,EPS,S,y,n,0,0,0,0,0,52,52,52,a,,yellow,,,,,,2,470.1101534999907,472.1622375000734,85,EPS,y,stim_85_y_u.jpg,filler,472.1622375000734,None,474.63541590003297,474.63541590003297,,,F0101,yellow,a,50,2023-09-26_17h39.06.230,Ownership,2023.1.2,59.96925976074086,
3,PPS,S,n,n,0,0,0,0,0,53,53,53,a,,yellow,,,,,,6,475.83783950004727,481.88502889999654,35,PPS,y,stim_35_y_u.jpg,test,481.88502889999654,None,,,,,F0101,yellow,a,50,2023-09-26_17h39.06.230,Ownership,2023.1.2,59.96925976074086,
3,EPS,S,n,n,0,0,0,0,0,54,54,54,a,,yellow,,,,,,4,484.3639535000548,488.4559283000417,85,EPS,y,stim_85_y_u.jpg,test,488.4559283000417,None,,,,,F0101,yellow,a,50,2023-09-26_17h39.06.230,Ownership,2023.1.2,59.96925976074086,
3,PPS,O,n,n,0,0,0,0,0,55,55,55,a,,yellow,,,,,,4,490.8911895999918,494.98921620007604,35,PPS,b,stim_35_b_u.jpg,test,494.98921620007604,None,,,,,F0101,yellow,a,50,2023-09-26_17h39.06.230,Ownership,2023.1.2,59.96925976074086,
3,BOUND,S,n,n,0,0,0,0,0,56,56,56,a,,yellow,,,,,,4,497.4174969000742,501.4645038000308,35,BOUND,y,stim_35_y_u.jpg,test,501.4645038000308,None,,,,,F0101,yellow,a,50,2023-09-26_17h39.06.230,Ownership,2023.1.2,59.96925976074086,
3,EPS,O,n,n,0,0,0,0,0,57,57,57,a,,yellow,,,,,,4,503.9451737999916,508.03630540007725,85,EPS,b,stim_85_b_u.jpg,test,508.03630540007725,None,,,,,F0101,yellow,a,50,2023-09-26_17h39.06.230,Ownership,2023.1.2,59.96925976074086,
3,EPS,S,n,n,0,0,0,0,0,58,58,58,a,,yellow,,,,,,2,510.471603800077,512.5269592000404,85,EPS,y,stim_85_y_u.jpg,test,512.5269592000404,None,,,,,F0101,yellow,a,50,2023-09-26_17h39.06.230,Ownership,2023.1.2,59.96925976074086,
3,EPS,S,n,n,0,0,0,0,0,59,59,59,a,,yellow,,,,,,2,515.0011457999935,517.0728641999885,85,EPS,y,stim_85_y_u.jpg,test,517.0728641999885,None,,,,,F0101,yellow,a,50,2023-09-26_17h39.06.230,Ownership,2023.1.2,59.96925976074086,
1,PPS,S,n,n,1,0,1,0,0,0,0,0,a,,yellow,,,,,,2,519.5295329000801,521.5602805999806,25,PPS,y,stim_25_y_u.jpg,test,521.5602805999806,None,,,,,F0101,yellow,a,50,2023-09-26_17h39.06.230,Ownership,2023.1.2,59.96925976074086,
1,PPS,S,n,n,1,0,1,0,0,1,1,1,a,,yellow,,,,,,2,524.0425214000279,526.0893768999958,25,PPS,y,stim_25_y_u.jpg,test,526.0893768999958,None,,,,,F0101,yellow,a,50,2023-09-26_17h39.06.230,Ownership,2023.1.2,59.96925976074086,
1,EPS,O,n,n,1,0,1,0,0,2,2,2,a,,yellow,,,,,,2,528.5717569000553,530.621632900089,75,EPS,b,stim_75_b_u.jpg,test,530.621632900089,None,,,,,F0101,yellow,a,50,2023-09-26_17h39.06.230,Ownership,2023.1.2,59.96925976074086,
1,PPS,S,n,n,1,0,1,0,0,3,3,3,a,,yellow,,,,,,6,533.1012931000441,539.145878600073,25,PPS,y,stim_25_y_u.jpg,test,539.145878600073,None,,,,,F0101,yellow,a,50,2023-09-26_17h39.06.230,Ownership,2023.1.2,59.96925976074086,
1,PPS,S,n,n,1,0,1,0,0,4,4,4,a,,yellow,,,,,,6,541.626634699991,547.6874535999959,25,PPS,y,stim_25_y_u.jpg,test,547.6874535999959,None,,,,,F0101,yellow,a,50,2023-09-26_17h39.06.230,Ownership,2023.1.2,59.96925976074086,
1,EPS,O,n,n,1,0,1,0,0,5,5,5,a,,yellow,,,,,,2,550.1513885000022,552.2204503000248,75,EPS,b,stim_75_b_u.jpg,test,552.2204503000248,None,,,,,F0101,yellow,a,50,2023-09-26_17h39.06.230,Ownership,2023.1.2,59.96925976074086,
1,EPS,S,n,n,1,0,1,0,0,6,6,6,a,,yellow,,,,,,4,554.6644943000283,558.7839117000112,75,EPS,y,stim_75_y_u.jpg,test,558.7839117000112,None,,,,,F0101,yellow,a,50,2023-09-26_17h39.06.230,Ownership,2023.1.2,59.96925976074086,
2,BOUND,S,y,n,1,0,1,0,0,7,7,7,a,,yellow,,,,,,2,561.1909903000342,563.2381252000341,75,BOUND,y,stim_75_y_u.jpg,filler,563.2381252000341,None,565.7174651999958,565.7174651999958,,,F0101,yellow,a,50,2023-09-26_17h39.06.230,Ownership,2023.1.2,59.96925976074086,
2,PPS,S,n,n,1,0,1,0,0,8,8,8,a,,yellow,,,,,,2,566.9190960000269,569.0126192000462,30,PPS,y,stim_30_y_u.jpg,test,569.0126192000462,None,,,,,F0101,yellow,a,50,2023-09-26_17h39.06.230,Ownership,2023.1.2,59.96925976074086,
1,EPS,O,n,n,1,0,1,0,0,9,9,9,a,,yellow,,,,,,12,571.4483709000051,583.5414092000574,75,EPS,b,stim_75_b_u.jpg,test,583.5414092000574,None,,,,,F0101,yellow,a,50,2023-09-26_17h39.06.230,Ownership,2023.1.2,59.96925976074086,
1,PPS,O,n,n,1,0,1,0,0,10,10,10,a,,yellow,,,,,,4,585.96849140001,590.0208965999773,25,PPS,b,stim_25_b_u.jpg,test,590.0208965999773,None,,,,,F0101,yellow,a,50,2023-09-26_17h39.06.230,Ownership,2023.1.2,59.96925976074086,
3,BOUND,S,n,n,1,0,1,0,0,11,11,11,a,,yellow,,,,,,2,592.49552830006,594.5837210000027,25,BOUND,y,stim_25_y_u.jpg,test,594.5837210000027,None,,,,,F0101,yellow,a,50,2023-09-26_17h39.06.230,Ownership,2023.1.2,59.96925976074086,
1,EPS,O,n,n,1,0,1,0,0,12,12,12,a,,yellow,,,,,,2,597.0254582000198,599.0805131000234,75,EPS,b,stim_75_b_u.jpg,test,599.0805131000234,None,,,,,F0101,yellow,a,50,2023-09-26_17h39.06.230,Ownership,2023.1.2,59.96925976074086,
1,EPS,S,n,n,1,0,1,0,0,13,13,13,a,,yellow,,,,,,4,601.5539498000871,605.6375999000156,75,EPS,y,stim_75_y_u.jpg,test,605.6375999000156,None,,,,,F0101,yellow,a,50,2023-09-26_17h39.06.230,Ownership,2023.1.2,59.96925976074086,
1,PPS,O,n,n,1,0,1,0,0,14,14,14,a,,yellow,,,,,,2,608.0814313000301,610.1272227000445,25,PPS,b,stim_25_b_u.jpg,test,610.1272227000445,None,,,,,F0101,yellow,a,50,2023-09-26_17h39.06.230,Ownership,2023.1.2,59.96925976074086,
1,EPS,S,n,n,1,0,1,0,0,15,15,15,a,,yellow,,,,,,6,612.6102922999999,618.6936978000449,75,EPS,y,stim_75_y_u.jpg,test,618.6936978000449,None,,,,,F0101,yellow,a,50,2023-09-26_17h39.06.230,Ownership,2023.1.2,59.96925976074086,
2,EPS,O,n,n,1,0,1,0,0,16,16,16,a,,yellow,,,,,,2,621.1354674000759,623.1818425999954,80,EPS,b,stim_80_b_u.jpg,test,623.1818425999954,None,,,,,F0101,yellow,a,50,2023-09-26_17h39.06.230,Ownership,2023.1.2,59.96925976074086,
1,PPS,O,n,n,1,0,1,0,0,17,17,17,a,,yellow,,,,,,4,625.6646015000297,629.7296795999864,25,PPS,b,stim_25_b_u.jpg,test,629.7296795999864,None,,,,,F0101,yellow,a,50,2023-09-26_17h39.06.230,Ownership,2023.1.2,59.96925976074086,
1,EPS,S,n,n,1,0,1,0,0,18,18,18,a,,yellow,,,,,,2,632.191591000068,634.2733967000386,75,EPS,y,stim_75_y_u.jpg,test,634.2733967000386,None,,,,,F0101,yellow,a,50,2023-09-26_17h39.06.230,Ownership,2023.1.2,59.96925976074086,
1,PPS,O,n,n,1,0,1,0,0,19,19,19,a,,yellow,,,,,,10,636.7208842000691,646.7961245999904,25,PPS,b,stim_25_b_u.jpg,test,646.7961245999904,None,,,,,F0101,yellow,a,50,2023-09-26_17h39.06.230,Ownership,2023.1.2,59.96925976074086,
2,EPS,O,n,n,1,0,1,0,0,20,20,20,a,,yellow,,,,,,4,649.2422902000835,653.2865549999988,80,EPS,b,stim_80_b_u.jpg,test,653.2865549999988,None,,,,,F0101,yellow,a,50,2023-09-26_17h39.06.230,Ownership,2023.1.2,59.96925976074086,
2,EPS,S,n,n,1,0,1,0,0,21,21,21,a,,yellow,,,,,,2,655.769409700064,657.8656288000057,80,EPS,y,stim_80_y_u.jpg,test,657.8656288000057,None,,,,,F0101,yellow,a,50,2023-09-26_17h39.06.230,Ownership,2023.1.2,59.96925976074086,
2,EPS,S,n,n,1,0,1,0,0,22,22,22,a,,yellow,,,,,,8,660.2984108000528,668.3632596000098,80,EPS,y,stim_80_y_u.jpg,test,668.3632596000098,None,,,,,F0101,yellow,a,50,2023-09-26_17h39.06.230,Ownership,2023.1.2,59.96925976074086,
2,PPS,S,n,n,1,0,1,0,0,23,23,23,a,,yellow,,,,,,4,670.8223150999984,674.8715843000682,30,PPS,y,stim_30_y_u.jpg,test,674.8715843000682,None,,,,,F0101,yellow,a,50,2023-09-26_17h39.06.230,Ownership,2023.1.2,59.96925976074086,
2,PPS,O,y,n,1,0,1,0,0,24,24,24,a,,yellow,,,,,,10,677.3499385999748,687.435163600021,30,PPS,b,stim_30_b_u.jpg,filler,687.435163600021,None,689.8680158000207,689.8680158000207,,,F0101,yellow,a,50,2023-09-26_17h39.06.230,Ownership,2023.1.2,59.96925976074086,
2,EPS,S,n,n,1,0,1,0,0,25,25,25,a,,yellow,,,,,,2,691.0696478000609,693.1284986999817,80,EPS,y,stim_80_y_u.jpg,test,693.1284986999817,None,,,,,F0101,yellow,a,50,2023-09-26_17h39.06.230,Ownership,2023.1.2,59.96925976074086,
2,PPS,S,n,n,1,0,1,0,0,26,26,26,a,,yellow,,,,,,4,695.5987104000524,699.7002007000847,30,PPS,y,stim_30_y_u.jpg,test,699.7002007000847,None,,,,,F0101,yellow,a,50,2023-09-26_17h39.06.230,Ownership,2023.1.2,59.96925976074086,
2,PPS,O,n,n,1,0,1,0,0,27,27,27,a,,yellow,,,,,,4,702.1269710999914,706.228373000049,30,PPS,b,stim_30_b_u.jpg,test,706.228373000049,None,,,,,F0101,yellow,a,50,2023-09-26_17h39.06.230,Ownership,2023.1.2,59.96925976074086,
2,EPS,S,n,n,1,0,1,0,0,28,28,28,a,,yellow,,,,,,4,708.653479599976,712.706582600018,80,EPS,y,stim_80_y_u.jpg,test,712.706582600018,None,,,,,F0101,yellow,a,50,2023-09-26_17h39.06.230,Ownership,2023.1.2,59.96925976074086,
3,BOUND,O,n,n,1,0,1,0,0,29,29,29,a,,yellow,,,,,,2,715.181266300031,717.2267438999843,80,BOUND,b,stim_80_b_u.jpg,test,717.2267438999843,None,,,,,F0101,yellow,a,50,2023-09-26_17h39.06.230,Ownership,2023.1.2,59.96925976074086,
3,PPS,S,y,n,1,0,1,0,0,30,30,30,a,,yellow,,,,,,4,719.7095851000631,723.7581791999983,35,PPS,y,stim_35_y_u.jpg,filler,723.7581791999983,None,726.2342209999915,726.2342209999915,,,F0101,yellow,a,50,2023-09-26_17h39.06.230,Ownership,2023.1.2,59.96925976074086,
2,PPS,O,n,n,1,0,1,0,0,31,31,31,a,,yellow,,,,,,2,727.4360122000799,729.5054974000668,30,PPS,b,stim_30_b_u.jpg,test,729.5054974000668,None,,,,,F0101,yellow,a,50,2023-09-26_17h39.06.230,Ownership,2023.1.2,59.96925976074086,
3,EPS,S,n,n,1,0,1,0,0,32,32,32,a,,yellow,,,,,,2,731.9660196000477,734.0134483000729,85,EPS,y,stim_85_y_u.jpg,test,734.0134483000729,None,,,,,F0101,yellow,a,50,2023-09-26_17h39.06.230,Ownership,2023.1.2,59.96925976074086,
3,BOUND,O,n,n,1,0,1,0,0,33,33,33,a,,yellow,,,,,,2,736.4945620000362,738.5403168000048,85,BOUND,b,stim_85_b_u.jpg,test,738.5403168000048,None,,,,,F0101,yellow,a,50,2023-09-26_17h39.06.230,Ownership,2023.1.2,59.96925976074086,
3,EPS,S,y,n,1,0,1,0,0,34,34,34,a,,yellow,,,,,,2,741.0151218000101,743.052789599984,85,EPS,y,stim_85_y_u.jpg,filler,743.052789599984,None,745.5327359000221,745.5327359000221,,,F0101,yellow,a,50,2023-09-26_17h39.06.230,Ownership,2023.1.2,59.96925976074086,
3,BOUND,S,n,n,1,0,1,0,0,35,35,35,a,,yellow,,,,,,10,746.7347642000532,756.814735300024,85,BOUND,y,stim_85_y_u.jpg,test,756.814735300024,None,,,,,F0101,yellow,a,50,2023-09-26_17h39.06.230,Ownership,2023.1.2,59.96925976074086,
2,PPS,O,n,n,1,0,1,0,0,36,36,36,a,,yellow,,,,,,4,759.2566967000021,763.3619435,30,PPS,b,stim_30_b_u.jpg,test,763.3619435,None,,,,,F0101,yellow,a,50,2023-09-26_17h39.06.230,Ownership,2023.1.2,59.96925976074086,
2,PPS,S,n,n,1,0,1,0,0,37,37,37,a,,yellow,,,,,,2,765.7838592000771,767.8316724000033,30,PPS,y,stim_30_y_u.jpg,test,767.8316724000033,None,,,,,F0101,yellow,a,50,2023-09-26_17h39.06.230,Ownership,2023.1.2,59.96925976074086,
2,PPS,O,n,n,1,0,1,0,0,38,38,38,a,,yellow,,,,,,2,770.3133397999918,772.3810404000105,30,PPS,b,stim_30_b_u.jpg,test,772.3810404000105,None,,,,,F0101,yellow,a,50,2023-09-26_17h39.06.230,Ownership,2023.1.2,59.96925976074086,
3,PPS,S,n,n,1,0,1,0,0,39,39,39,a,,yellow,,,,,,4,774.8433280000463,778.9062433000654,35,PPS,y,stim_35_y_u.jpg,test,778.9062433000654,None,,,,,F0101,yellow,a,50,2023-09-26_17h39.06.230,Ownership,2023.1.2,59.96925976074086,
3,PPS,O,n,n,1,0,1,0,0,40,40,40,a,,yellow,,,,,,2,781.3687524000416,783.4403986000689,35,PPS,b,stim_35_b_u.jpg,test,783.4403986000689,None,,,,,F0101,yellow,a,50,2023-09-26_17h39.06.230,Ownership,2023.1.2,59.96925976074086,
2,EPS,O,n,n,1,0,1,0,0,41,41,41,a,,yellow,,,,,,4,785.8812980999937,790.0391241000034,80,EPS,b,stim_80_b_u.jpg,test,790.0391241000034,None,,,,,F0101,yellow,a,50,2023-09-26_17h39.06.230,Ownership,2023.1.2,59.96925976074086,
3,PPS,S,n,n,1,0,1,0,0,42,42,42,a,,yellow,,,,,,4,792.4094124999829,796.4856820000568,35,PPS,y,stim_35_y_u.jpg,test,796.4856820000568,None,,,,,F0101,yellow,a,50,2023-09-26_17h39.06.230,Ownership,2023.1.2,59.96925976074086,
3,PPS,S,n,n,1,0,1,0,0,43,43,43,a,,yellow,,,,,,2,798.9366434999974,801.0203355000122,35,PPS,y,stim_35_y_u.jpg,test,801.0203355000122,None,,,,,F0101,yellow,a,50,2023-09-26_17h39.06.230,Ownership,2023.1.2,59.96925976074086,
3,EPS,S,n,n,1,0,1,0,0,44,44,44,a,,yellow,,,,,,2,803.4652394000441,805.511357099982,85,EPS,y,stim_85_y_u.jpg,test,805.511357099982,None,,,,,F0101,yellow,a,50,2023-09-26_17h39.06.230,Ownership,2023.1.2,59.96925976074086,
3,EPS,S,n,n,1,0,1,0,0,45,45,45,a,,yellow,,,,,,6,807.994297600002,814.0776097000344,85,EPS,y,stim_85_y_u.jpg,test,814.0776097000344,None,,,,,F0101,yellow,a,50,2023-09-26_17h39.06.230,Ownership,2023.1.2,59.96925976074086,
2,EPS,O,n,n,1,0,1,0,0,46,46,46,a,,yellow,,,,,,2,816.5196529000532,818.5523359000217,80,EPS,b,stim_80_b_u.jpg,test,818.5523359000217,None,,,,,F0101,yellow,a,50,2023-09-26_17h39.06.230,Ownership,2023.1.2,59.96925976074086,
3,EPS,O,n,n,1,0,1,0,0,47,47,47,a,,yellow,,,,,,2,821.0329916999908,823.1200989000499,85,EPS,b,stim_85_b_u.jpg,test,823.1200989000499,None,,,,,F0101,yellow,a,50,2023-09-26_17h39.06.230,Ownership,2023.1.2,59.96925976074086,
3,PPS,O,n,n,1,0,1,0,0,48,48,48,a,,yellow,,,,,,4,825.5611730000237,829.6153421000345,35,PPS,b,stim_35_b_u.jpg,test,829.6153421000345,None,,,,,F0101,yellow,a,50,2023-09-26_17h39.06.230,Ownership,2023.1.2,59.96925976074086,
2,BOUND,O,y,n,1,0,1,0,0,49,49,49,a,,yellow,,,,,,2,832.0884266999783,834.1376156000188,35,BOUND,b,stim_35_b_u.jpg,filler,834.1376156000188,None,836.6145283000078,836.6145283000078,,,F0101,yellow,a,50,2023-09-26_17h39.06.230,Ownership,2023.1.2,59.96925976074086,
3,PPS,S,n,n,1,0,1,0,0,50,50,50,a,,yellow,,,,,,2,837.816617500037,839.8763830000535,35,PPS,y,stim_35_y_u.jpg,test,839.8763830000535,None,,,,,F0101,yellow,a,50,2023-09-26_17h39.06.230,Ownership,2023.1.2,59.96925976074086,
3,PPS,O,n,n,1,0,1,0,0,51,51,51,a,,yellow,,,,,,6,842.3456799000269,848.3946630000137,35,PPS,b,stim_35_b_u.jpg,test,848.3946630000137,None,,,,,F0101,yellow,a,50,2023-09-26_17h39.06.230,Ownership,2023.1.2,59.96925976074086,
3,BOUND,S,n,n,1,0,1,0,0,52,52,52,a,,yellow,,,,,,2,850.870633100043,852.9234428000636,35,BOUND,y,stim_35_y_u.jpg,test,852.9234428000636,None,,,,,F0101,yellow,a,50,2023-09-26_17h39.06.230,Ownership,2023.1.2,59.96925976074086,
3,EPS,O,n,n,1,0,1,0,0,53,53,53,a,,yellow,,,,,,6,855.3998027000343,861.4874324999982,85,EPS,b,stim_85_b_u.jpg,test,861.4874324999982,None,,,,,F0101,yellow,a,50,2023-09-26_17h39.06.230,Ownership,2023.1.2,59.96925976074086,
3,EPS,O,n,n,1,0,1,0,0,54,54,54,a,,yellow,,,,,,4,863.9255821000552,867.9710402999772,85,EPS,b,stim_85_b_u.jpg,test,867.9710402999772,None,,,,,F0101,yellow,a,50,2023-09-26_17h39.06.230,Ownership,2023.1.2,59.96925976074086,
3,EPS,O,y,n,1,0,1,0,0,55,55,55,a,,yellow,,,,,,4,870.4528472999809,874.5473166999873,85,EPS,b,stim_85_b_u.jpg,filler,874.5473166999873,None,876.976641700021,876.976641700021,,,F0101,yellow,a,50,2023-09-26_17h39.06.230,Ownership,2023.1.2,59.96925976074086,
3,PPS,O,n,n,1,0,1,0,0,56,56,56,a,,yellow,,,,,,4,878.1786960000172,882.2827607999789,35,PPS,b,stim_35_b_u.jpg,test,882.2827607999789,None,,,,,F0101,yellow,a,50,2023-09-26_17h39.06.230,Ownership,2023.1.2,59.96925976074086,
3,EPS,O,n,n,1,0,1,0,0,57,57,57,a,,yellow,,,,,,4,884.7066542999819,888.758399900049,85,EPS,b,stim_85_b_u.jpg,test,888.758399900049,None,,,,,F0101,yellow,a,50,2023-09-26_17h39.06.230,Ownership,2023.1.2,59.96925976074086,
3,EPS,S,n,n,1,0,1,0,0,58,58,58,a,,yellow,,,,,,2,891.2333296000725,893.290513999993,85,EPS,y,stim_85_y_u.jpg,test,893.290513999993,None,,,,,F0101,yellow,a,50,2023-09-26_17h39.06.230,Ownership,2023.1.2,59.96925976074086,
3,BOUND,O,n,y,1,0,1,0,0,59,59,59,a,,yellow,,,,,,2,895.7621160000563,897.8168395999819,85,BOUND,b,stim_85_b_u.jpg,test,897.8168395999819,None,,,,,F0101,yellow,a,50,2023-09-26_17h39.06.230,Ownership,2023.1.2,59.96925976074086,
1,PPS,O,n,n,2,0,2,0,0,0,0,0,a,,yellow,,900.2889420000138,900.2889420000138,900.2889420000138,8.380005601793528e-05,2,930.2967751000542,932.3742997000227,25,PPS,b,stim_25_b_u.jpg,test,932.3742997000227,None,,,,,F0101,yellow,a,50,2023-09-26_17h39.06.230,Ownership,2023.1.2,59.96925976074086,
1,EPS,O,n,n,2,0,2,0,0,1,1,1,a,,yellow,,,,,,2,934.8259361999808,936.9817598999944,75,EPS,b,stim_75_b_u.jpg,test,936.9817598999944,None,,,,,F0101,yellow,a,50,2023-09-26_17h39.06.230,Ownership,2023.1.2,59.96925976074086,
1,EPS,S,n,n,2,0,2,0,0,2,2,2,a,,yellow,,,,,,2,939.3549639000557,941.3876561999787,75,EPS,y,stim_75_y_u.jpg,test,941.3876561999787,None,,,,,F0101,yellow,a,50,2023-09-26_17h39.06.230,Ownership,2023.1.2,59.96925976074086,
1,EPS,O,n,n,2,0,2,0,0,3,3,3,a,,yellow,,,,,,6,943.8673153000418,949.9633059999906,75,EPS,b,stim_75_b_u.jpg,test,949.9633059999906,None,,,,,F0101,yellow,a,50,2023-09-26_17h39.06.230,Ownership,2023.1.2,59.96925976074086,
1,PPS,S,n,n,2,0,2,0,0,4,4,4,a,,yellow,,,,,,6,952.3935717000859,958.4520456000464,25,PPS,y,stim_25_y_u.jpg,test,958.4520456000464,None,,,,,F0101,yellow,a,50,2023-09-26_17h39.06.230,Ownership,2023.1.2,59.96925976074086,
1,EPS,S,n,n,2,0,2,0,0,5,5,5,a,,yellow,,,,,,2,960.919017600012,962.9738670000806,75,EPS,y,stim_75_y_u.jpg,test,962.9738670000806,None,,,,,F0101,yellow,a,50,2023-09-26_17h39.06.230,Ownership,2023.1.2,59.96925976074086,
1,EPS,S,n,n,2,0,2,0,0,6,6,6,a,,yellow,,,,,,4,965.4476281000534,969.5609180000611,75,EPS,y,stim_75_y_u.jpg,test,969.5609180000611,None,,,,,F0101,yellow,a,50,2023-09-26_17h39.06.230,Ownership,2023.1.2,59.96925976074086,
2,PPS,S,y,n,2,0,2,0,0,7,7,7,a,,yellow,,,,,,2,971.9747862999793,974.0227430000668,30,PPS,y,stim_30_y_u.jpg,filler,974.0227430000668,None,976.5000244000694,976.5000244000694,,,F0101,yellow,a,50,2023-09-26_17h39.06.230,Ownership,2023.1.2,59.96925976074086,
3,BOUND,S,n,n,2,0,2,0,0,8,8,8,a,,yellow,,,,,,2,977.7024246000219,979.7609113000799,30,BOUND,y,stim_30_y_u.jpg,test,979.7609113000799,None,,,,,F0101,yellow,a,50,2023-09-26_17h39.06.230,Ownership,2023.1.2,59.96925976074086,
3,EPS,O,y,n,2,0,2,0,0,9,9,9,a,,yellow,,,,,,12,982.2313849000493,994.3623144000303,85,EPS,b,stim_85_b_u.jpg,filler,994.3623144000303,None,996.7490984000033,996.7490984000033,,,F0101,yellow,a,50,2023-09-26_17h39.06.230,Ownership,2023.1.2,59.96925976074086,
1,EPS,S,n,n,2,0,2,0,0,10,10,10,a,,yellow,,,,,,4,997.9504919999745,1002.0014106000308,75,EPS,y,stim_75_y_u.jpg,test,1002.0014106000308,None,,,,,F0101,yellow,a,50,2023-09-26_17h39.06.230,Ownership,2023.1.2,59.96925976074086,
3,BOUND,O,n,n,2,0,2,0,0,11,11,11,a,,yellow,,,,,,2,1004.4777138000354,1006.5307905999944,75,BOUND,b,stim_75_b_u.jpg,test,1006.5307905999944,None,,,,,F0101,yellow,a,50,2023-09-26_17h39.06.230,Ownership,2023.1.2,59.96925976074086,
1,PPS,O,n,n,2,0,2,0,0,12,12,12,a,,yellow,,,,,,2,1009.0067508000648,1011.0431602000026,25,PPS,b,stim_25_b_u.jpg,test,1011.0431602000026,None,,,,,F0101,yellow,a,50,2023-09-26_17h39.06.230,Ownership,2023.1.2,59.96925976074086,
1,EPS,O,n,n,2,0,2,0,0,13,13,13,a,,yellow,,,,,,4,1013.5188069000142,1017.5949651000556,75,EPS,b,stim_75_b_u.jpg,test,1017.5949651000556,None,,,,,F0101,yellow,a,50,2023-09-26_17h39.06.230,Ownership,2023.1.2,59.96925976074086,
2,EPS,S,n,n,2,0,2,0,0,14,14,14,a,,yellow,,,,,,2,1020.0466661000391,1022.0961952999933,80,EPS,y,stim_80_y_u.jpg,test,1022.0961952999933,None,,,,,F0101,yellow,a,50,2023-09-26_17h39.06.230,Ownership,2023.1.2,59.96925976074086,
2,EPS,S,n,n,2,0,2,0,0,15,15,15,a,,yellow,,,,,,6,1024.5608578000683,1030.6346870000707,80,EPS,y,stim_80_y_u.jpg,test,1030.6346870000707,None,,,,,F0101,yellow,a,50,2023-09-26_17h39.06.230,Ownership,2023.1.2,59.96925976074086,
1,EPS,O,n,n,2,0,2,0,0,16,16,16,a,,yellow,,,,,,2,1033.0842587000225,1035.130601700046,75,EPS,b,stim_75_b_u.jpg,test,1035.130601700046,None,,,,,F0101,yellow,a,50,2023-09-26_17h39.06.230,Ownership,2023.1.2,59.96925976074086,
1,PPS,O,n,n,2,0,2,0,0,17,17,17,a,,yellow,,,,,,4,1037.6150391000556,1041.711069800076,25,PPS,b,stim_25_b_u.jpg,test,1041.711069800076,None,,,,,F0101,yellow,a,50,2023-09-26_17h39.06.230,Ownership,2023.1.2,59.96925976074086,
1,PPS,O,n,n,2,0,2,0,0,18,18,18,a,,yellow,,,,,,2,1044.140848500072,1046.1866927000228,25,PPS,b,stim_25_b_u.jpg,test,1046.1866927000228,None,,,,,F0101,yellow,a,50,2023-09-26_17h39.06.230,Ownership,2023.1.2,59.96925976074086,
2,PPS,O,n,n,2,0,2,0,0,19,19,19,a,,yellow,,,,,,10,1048.6694872999797,1058.7562709000194,30,PPS,b,stim_30_b_u.jpg,test,1058.7562709000194,None,,,,,F0101,yellow,a,50,2023-09-26_17h39.06.230,Ownership,2023.1.2,59.96925976074086,
2,EPS,S,n,n,2,0,2,0,0,20,20,20,a,,yellow,,,,,,4,1061.1909963000799,1065.329891200061,80,EPS,y,stim_80_y_u.jpg,test,1065.329891200061,None,,,,,F0101,yellow,a,50,2023-09-26_17h39.06.230,Ownership,2023.1.2,59.96925976074086,
2,EPS,O,n,n,2,0,2,0,0,21,21,21,a,,yellow,,,,,,2,1067.71911429998,1069.7675369000062,80,EPS,b,stim_80_b_u.jpg,test,1069.7675369000062,None,,,,,F0101,yellow,a,50,2023-09-26_17h39.06.230,Ownership,2023.1.2,59.96925976074086,
2,EPS,S,y,n,2,0,2,0,0,22,22,22,a,,yellow,,,,,,8,1072.2473889000248,1080.295616800082,80,EPS,y,stim_80_y_u.jpg,filler,1080.295616800082,None,1082.767883600085,1082.767883600085,,,F0101,yellow,a,50,2023-09-26_17h39.06.230,Ownership,2023.1.2,59.96925976074086,
2,BOUND,S,n,n,2,0,2,0,0,23,23,23,a,,yellow,,,,,,4,1083.9704478000058,1088.100039800047,80,BOUND,y,stim_80_y_u.jpg,test,1088.100039800047,None,,,,,F0101,yellow,a,50,2023-09-26_17h39.06.230,Ownership,2023.1.2,59.96925976074086,
2,PPS,O,n,n,2,0,2,0,0,24,24,24,a,,yellow,,,,,,10,1090.4974132999778,1100.596183000016,30,PPS,b,stim_30_b_u.jpg,test,1100.596183000016,None,,,,,F0101,yellow,a,50,2023-09-26_17h39.06.230,Ownership,2023.1.2,59.96925976074086,
2,PPS,O,n,n,2,0,2,0,0,25,25,25,a,,yellow,,,,,,2,1103.0204014000483,1105.067115999991,30,PPS,b,stim_30_b_u.jpg,test,1105.067115999991,None,,,,,F0101,yellow,a,50,2023-09-26_17h39.06.230,Ownership,2023.1.2,59.96925976074086,
1,PPS,S,n,n,2,0,2,0,0,26,26,26,a,,yellow,,,,,,4,1107.5483787000412,1111.637374300044,25,PPS,y,stim_25_y_u.jpg,test,1111.637374300044,None,,,,,F0101,yellow,a,50,2023-09-26_17h39.06.230,Ownership,2023.1.2,59.96925976074086,
2,EPS,S,n,n,2,0,2,0,0,27,27,27,a,,yellow,,,,,,4,1114.075445900089,1118.1292098000413,80,EPS,y,stim_80_y_u.jpg,test,1118.1292098000413,None,,,,,F0101,yellow,a,50,2023-09-26_17h39.06.230,Ownership,2023.1.2,59.96925976074086,
1,PPS,S,n,n,2,0,2,0,0,28,28,28,a,,yellow,,,,,,4,1120.602364600054,1124.7090726000024,25,PPS,y,stim_25_y_u.jpg,test,1124.7090726000024,None,,,,,F0101,yellow,a,50,2023-09-26_17h39.06.230,Ownership,2023.1.2,59.96925976074086,
3,BOUND,S,y,n,2,0,2,0,0,29,29,29,a,,yellow,,,,,,2,1127.1294662000146,1129.20092079998,25,BOUND,y,stim_25_y_u.jpg,filler,1129.20092079998,None,1131.656079599983,1131.656079599983,,,F0101,yellow,a,50,2023-09-26_17h39.06.230,Ownership,2023.1.2,59.96925976074086,
1,PPS,S,n,n,2,0,2,0,0,30,30,30,a,,yellow,,,,,,4,1132.857577100047,1136.92063399998,25,PPS,y,stim_25_y_u.jpg,test,1136.92063399998,None,,,,,F0101,yellow,a,50,2023-09-26_17h39.06.230,Ownership,2023.1.2,59.96925976074086,
2,PPS,S,n,n,2,0,2,0,0,31,31,31,a,,yellow,,,,,,2,1139.3850091000786,1141.4354821000015,30,PPS,y,stim_30_y_u.jpg,test,1141.4354821000015,None,,,,,F0101,yellow,a,50,2023-09-26_17h39.06.230,Ownership,2023.1.2,59.96925976074086,
3,BOUND,O,n,n,2,0,2,0,0,32,32,32,a,,yellow,,,,,,2,1143.9144269999815,1145.9613883000566,30,BOUND,b,stim_30_b_u.jpg,test,1145.9613883000566,None,,,,,F0101,yellow,a,50,2023-09-26_17h39.06.230,Ownership,2023.1.2,59.96925976074086,
2,PPS,S,n,n,2,0,2,0,0,33,33,33,a,,yellow,,,,,,2,1148.4429231000831,1150.5221516999882,30,PPS,y,stim_30_y_u.jpg,test,1150.5221516999882,None,,,,,F0101,yellow,a,50,2023-09-26_17h39.06.230,Ownership,2023.1.2,59.96925976074086,
2,PPS,S,n,n,2,0,2,0,0,34,34,34,a,,yellow,,,,,,2,1152.9560316000134,1155.0111677000532,30,PPS,y,stim_30_y_u.jpg,test,1155.0111677000532,None,,,,,F0101,yellow,a,50,2023-09-26_17h39.06.230,Ownership,2023.1.2,59.96925976074086,
2,EPS,O,n,n,2,0,2,0,0,35,35,35,a,,yellow,,,,,,10,1157.4850768999895,1167.533044800046,80,EPS,b,stim_80_b_u.jpg,test,1167.533044800046,None,,,,,F0101,yellow,a,50,2023-09-26_17h39.06.230,Ownership,2023.1.2,59.96925976074086,
1,PPS,O,y,n,2,0,2,0,0,36,36,36,a,,yellow,,,,,,4,1170.0065051000565,1174.0662960000336,25,PPS,b,stim_25_b_u.jpg,filler,1174.0662960000336,None,1176.5303840000415,1176.5303840000415,,,F0101,yellow,a,50,2023-09-26_17h39.06.230,Ownership,2023.1.2,59.96925976074086,
2,EPS,O,n,n,2,0,2,0,0,37,37,37,a,,yellow,,,,,,2,1177.7323711999925,1179.777664400055,80,EPS,b,stim_80_b_u.jpg,test,1179.777664400055,None,,,,,F0101,yellow,a,50,2023-09-26_17h39.06.230,Ownership,2023.1.2,59.96925976074086,
3,EPS,S,n,n,2,0,2,0,0,38,38,38,a,,yellow,,,,,,2,1182.261576400022,1184.3483777000802,85,EPS,y,stim_85_y_u.jpg,test,1184.3483777000802,None,,,,,F0101,yellow,a,50,2023-09-26_17h39.06.230,Ownership,2023.1.2,59.96925976074086,
2,EPS,O,n,n,2,0,2,0,0,39,39,39,a,,yellow,,,,,,4,1186.7904766000574,1190.848529500072,80,EPS,b,stim_80_b_u.jpg,test,1190.848529500072,None,,,,,F0101,yellow,a,50,2023-09-26_17h39.06.230,Ownership,2023.1.2,59.96925976074086,
1,BOUND,S,n,n,2,0,2,0,0,40,40,40,a,,yellow,,,,,,2,1193.3178268000484,1195.3630819000537,80,BOUND,y,stim_80_y_u.jpg,test,1195.3630819000537,None,,,,,F0101,yellow,a,50,2023-09-26_17h39.06.230,Ownership,2023.1.2,59.96925976074086,
2,PPS,O,n,n,2,0,2,0,0,41,41,41,a,,yellow,,,,,,4,1197.847304200055,1201.8933124999749,30,PPS,b,stim_30_b_u.jpg,test,1201.8933124999749,None,,,,,F0101,yellow,a,50,2023-09-26_17h39.06.230,Ownership,2023.1.2,59.96925976074086,
3,PPS,O,n,n,2,0,2,0,0,42,42,42,a,,yellow,,,,,,4,1204.3743997000856,1208.4178715000162,35,PPS,b,stim_35_b_u.jpg,test,1208.4178715000162,None,,,,,F0101,yellow,a,50,2023-09-26_17h39.06.230,Ownership,2023.1.2,59.96925976074086,
2,PPS,S,n,n,2,0,2,0,0,43,43,43,a,,yellow,,,,,,2,1210.9015061000828,1212.9468223000877,30,PPS,y,stim_30_y_u.jpg,test,1212.9468223000877,None,,,,,F0101,yellow,a,50,2023-09-26_17h39.06.230,Ownership,2023.1.2,59.96925976074086,
3,EPS,O,n,n,2,0,2,0,0,44,44,44,a,,yellow,,,,,,2,1215.4305237000808,1217.474370000069,85,EPS,b,stim_85_b_u.jpg,test,1217.474370000069,None,,,,,F0101,yellow,a,50,2023-09-26_17h39.06.230,Ownership,2023.1.2,59.96925976074086,
3,EPS,O,n,n,2,0,2,0,0,45,45,45,a,,yellow,,,,,,6,1219.9599046000512,1226.006936800084,85,EPS,b,stim_85_b_u.jpg,test,1226.006936800084,None,,,,,F0101,yellow,a,50,2023-09-26_17h39.06.230,Ownership,2023.1.2,59.96925976074086,
3,EPS,S,n,n,2,0,2,0,0,46,46,46,a,,yellow,,,,,,2,1228.4853639000794,1230.5334322000854,85,EPS,y,stim_85_y_u.jpg,test,1230.5334322000854,None,,,,,F0101,yellow,a,50,2023-09-26_17h39.06.230,Ownership,2023.1.2,59.96925976074086,
3,EPS,O,n,n,2,0,2,0,0,47,47,47,a,,yellow,,,,,,2,1232.9981958999997,1235.0905168000609,85,EPS,b,stim_85_b_u.jpg,test,1235.0905168000609,None,,,,,F0101,yellow,a,50,2023-09-26_17h39.06.230,Ownership,2023.1.2,59.96925976074086,
3,PPS,S,n,n,2,0,2,0,0,48,48,48,a,,yellow,,,,,,4,1237.52671320003,1241.5740310000256,35,PPS,y,stim_35_y_u.jpg,test,1241.5740310000256,None,,,,,F0101,yellow,a,50,2023-09-26_17h39.06.230,Ownership,2023.1.2,59.96925976074086,
3,PPS,S,n,n,2,0,2,0,0,49,49,49,a,,yellow,,,,,,2,1244.054130500066,1246.1575050000101,35,PPS,y,stim_35_y_u.jpg,test,1246.1575050000101,None,,,,,F0101,yellow,a,50,2023-09-26_17h39.06.230,Ownership,2023.1.2,59.96925976074086,
2,BOUND,O,y,n,2,0,2,0,0,50,50,50,a,,yellow,,,,,,2,1248.5835164000746,1250.6314518,35,BOUND,b,stim_35_b_u.jpg,filler,1250.6314518,None,1253.1090656000888,1253.1090656000888,,,F0101,yellow,a,50,2023-09-26_17h39.06.230,Ownership,2023.1.2,59.96925976074086,
3,PPS,O,n,n,2,0,2,0,0,51,51,51,a,,yellow,,,,,,6,1254.310939899995,1260.3545252999756,35,PPS,b,stim_35_b_u.jpg,test,1260.3545252999756,None,,,,,F0101,yellow,a,50,2023-09-26_17h39.06.230,Ownership,2023.1.2,59.96925976074086,
3,EPS,S,n,n,2,0,2,0,0,52,52,52,a,,yellow,,,,,,2,1262.837201400078,1264.884983099997,85,EPS,y,stim_85_y_u.jpg,test,1264.884983099997,None,,,,,F0101,yellow,a,50,2023-09-26_17h39.06.230,Ownership,2023.1.2,59.96925976074086,
3,BOUND,O,n,n,2,0,2,0,0,53,53,53,a,,yellow,,,,,,6,1267.3655705000274,1273.4115526999813,85,BOUND,b,stim_85_b_u.jpg,test,1273.4115526999813,None,,,,,F0101,yellow,a,50,2023-09-26_17h39.06.230,Ownership,2023.1.2,59.96925976074086,
3,EPS,S,n,n,2,0,2,0,0,54,54,54,a,,yellow,,,,,,4,1275.8906375999795,1279.9380147000775,85,EPS,y,stim_85_y_u.jpg,test,1279.9380147000775,None,,,,,F0101,yellow,a,50,2023-09-26_17h39.06.230,Ownership,2023.1.2,59.96925976074086,
3,EPS,O,n,n,2,0,2,0,0,55,55,55,a,,yellow,,,,,,4,1282.4181115999818,1286.4678404000588,85,EPS,b,stim_85_b_u.jpg,test,1286.4678404000588,None,,,,,F0101,yellow,a,50,2023-09-26_17h39.06.230,Ownership,2023.1.2,59.96925976074086,
3,PPS,O,n,n,2,0,2,0,0,56,56,56,a,,yellow,,,,,,4,1288.945217999979,1293.0138175999746,35,PPS,b,stim_35_b_u.jpg,test,1293.0138175999746,None,,,,,F0101,yellow,a,50,2023-09-26_17h39.06.230,Ownership,2023.1.2,59.96925976074086,
3,PPS,S,n,n,2,0,2,0,0,57,57,57,a,,yellow,,,,,,4,1295.4726579000708,1299.5171810000902,35,PPS,y,stim_35_y_u.jpg,test,1299.5171810000902,None,,,,,F0101,yellow,a,50,2023-09-26_17h39.06.230,Ownership,2023.1.2,59.96925976074086,
3,PPS,S,n,n,2,0,2,0,0,58,58,58,a,,yellow,,,,,,2,1301.999600799987,1304.0886193000479,35,PPS,y,stim_35_y_u.jpg,test,1304.0886193000479,None,,,,,F0101,yellow,a,50,2023-09-26_17h39.06.230,Ownership,2023.1.2,59.96925976074086,
3,PPS,O,n,n,2,0,2,0,0,59,59,59,a,,yellow,,,,,,2,1306.5286326999776,1308.623751200037,35,PPS,b,stim_35_b_u.jpg,test,1308.623751200037,None,,,,,F0101,yellow,a,50,2023-09-26_17h39.06.230,Ownership,2023.1.2,59.96925976074086,
1,EPS,O,n,n,3,0,3,0,0,0,0,0,a,,yellow,,,,,,2,1311.057884400012,1313.106910499977,75,EPS,b,stim_75_b_u.jpg,test,1313.106910499977,None,,,,,F0101,yellow,a,50,2023-09-26_17h39.06.230,Ownership,2023.1.2,59.96925976074086,
1,EPS,S,n,n,3,0,3,0,0,1,1,1,a,,yellow,,,,,,2,1315.5871744999895,1317.6925418999745,75,EPS,y,stim_75_y_u.jpg,test,1317.6925418999745,None,,,,,F0101,yellow,a,50,2023-09-26_17h39.06.230,Ownership,2023.1.2,59.96925976074086,
1,PPS,S,n,n,3,0,3,0,0,2,2,2,a,,yellow,,,,,,2,1320.1162330000661,1322.1637532000896,25,PPS,y,stim_25_y_u.jpg,test,1322.1637532000896,None,,,,,F0101,yellow,a,50,2023-09-26_17h39.06.230,Ownership,2023.1.2,59.96925976074086,
1,EPS,O,n,n,3,0,3,0,0,3,3,3,a,,yellow,,,,,,6,1324.6458094000118,1330.6956296000862,75,EPS,b,stim_75_b_u.jpg,test,1330.6956296000862,None,,,,,F0101,yellow,a,50,2023-09-26_17h39.06.230,Ownership,2023.1.2,59.96925976074086,
1,PPS,O,n,n,3,0,3,0,0,4,4,4,a,,yellow,,,,,,6,1333.170371800079,1339.2171363000525,25,PPS,b,stim_25_b_u.jpg,test,1339.2171363000525,None,,,,,F0101,yellow,a,50,2023-09-26_17h39.06.230,Ownership,2023.1.2,59.96925976074086,
2,BOUND,S,y,n,3,0,3,0,0,5,5,5,a,,yellow,,,,,,2,1341.6968309000367,1343.741132199997,25,BOUND,y,stim_25_y_u.jpg,filler,1343.741132199997,None,1346.221922500059,1346.221922500059,,,F0101,yellow,a,50,2023-09-26_17h39.06.230,Ownership,2023.1.2,59.96925976074086,
1,PPS,S,n,n,3,0,3,0,0,6,6,6,a,,yellow,,,,,,4,1347.424174200045,1351.477707299986,25,PPS,y,stim_25_y_u.jpg,test,1351.477707299986,None,,,,,F0101,yellow,a,50,2023-09-26_17h39.06.230,Ownership,2023.1.2,59.96925976074086,
1,PPS,O,n,n,3,0,3,0,0,7,7,7,a,,yellow,,,,,,2,1353.9510456999997,1355.9973246000009,25,PPS,b,stim_25_b_u.jpg,test,1355.9973246000009,None,,,,,F0101,yellow,a,50,2023-09-26_17h39.06.230,Ownership,2023.1.2,59.96925976074086,
1,EPS,O,n,n,3,0,3,0,0,8,8,8,a,,yellow,,,,,,2,1358.4804062000476,1360.526893800008,75,EPS,b,stim_75_b_u.jpg,test,1360.526893800008,None,,,,,F0101,yellow,a,50,2023-09-26_17h39.06.230,Ownership,2023.1.2,59.96925976074086,
1,PPS,S,n,n,3,0,3,0,0,9,9,9,a,,yellow,,,,,,12,1363.0098374000518,1375.0671260000672,25,PPS,y,stim_25_y_u.jpg,test,1375.0671260000672,None,,,,,F0101,yellow,a,50,2023-09-26_17h39.06.230,Ownership,2023.1.2,59.96925976074086,
3,BOUND,O,n,n,3,0,3,0,0,10,10,10,a,,yellow,,,,,,4,1377.529048299999,1381.593978799996,25,BOUND,b,stim_25_b_u.jpg,test,1381.593978799996,None,,,,,F0101,yellow,a,50,2023-09-26_17h39.06.230,Ownership,2023.1.2,59.96925976074086,
1,EPS,O,n,n,3,0,3,0,0,11,11,11,a,,yellow,,,,,,2,1384.0566353000468,1386.1056626000209,75,EPS,b,stim_75_b_u.jpg,test,1386.1056626000209,None,,,,,F0101,yellow,a,50,2023-09-26_17h39.06.230,Ownership,2023.1.2,59.96925976074086,
1,EPS,S,y,n,3,0,3,0,0,12,12,12,a,,yellow,,,,,,2,1388.5860420999816,1390.6658214000054,75,EPS,y,stim_75_y_u.jpg,filler,1390.6658214000054,None,1393.1113634000067,1393.1113634000067,,,F0101,yellow,a,50,2023-09-26_17h39.06.230,Ownership,2023.1.2,59.96925976074086,
1,BOUND,S,n,n,3,0,3,0,0,13,13,13,a,,yellow,,,,,,4,1394.3138136999914,1398.3613508000271,75,BOUND,y,stim_75_y_u.jpg,test,1398.3613508000271,None,,,,,F0101,yellow,a,50,2023-09-26_17h39.06.230,Ownership,2023.1.2,59.96925976074086,
1,PPS,O,n,n,3,0,3,0,0,14,14,14,a,,yellow,,,,,,2,1400.8424425000558,1402.8864063000074,25,PPS,b,stim_25_b_u.jpg,test,1402.8864063000074,None,,,,,F0101,yellow,a,50,2023-09-26_17h39.06.230,Ownership,2023.1.2,59.96925976074086,
2,EPS,O,n,n,3,0,3,0,0,15,15,15,a,,yellow,,,,,,6,1405.370558100054,1411.414078300004,80,EPS,b,stim_80_b_u.jpg,test,1411.414078300004,None,,,,,F0101,yellow,a,50,2023-09-26_17h39.06.230,Ownership,2023.1.2,59.96925976074086,
1,EPS,O,y,n,3,0,3,0,0,16,16,16,a,,yellow,,,,,,2,1413.897467300063,1415.9432266000658,75,EPS,b,stim_75_b_u.jpg,filler,1415.9432266000658,None,1418.4209188000532,1418.4209188000532,,,F0101,yellow,a,50,2023-09-26_17h39.06.230,Ownership,2023.1.2,59.96925976074086,
1,PPS,O,n,n,3,0,3,0,0,17,17,17,a,,yellow,,,,,,4,1419.6238779000705,1423.7090833000839,25,PPS,b,stim_25_b_u.jpg,test,1423.7090833000839,None,,,,,F0101,yellow,a,50,2023-09-26_17h39.06.230,Ownership,2023.1.2,59.96925976074086,
1,BOUND,S,n,n,3,0,3,0,0,18,18,18,a,,yellow,,,,,,2,1426.1512218000134,1428.1968649000628,25,BOUND,y,stim_25_y_u.jpg,test,1428.1968649000628,None,,,,,F0101,yellow,a,50,2023-09-26_17h39.06.230,Ownership,2023.1.2,59.96925976074086,
1,PPS,O,y,n,3,0,3,0,0,19,19,19,a,,yellow,,,,,,10,1430.6797319999896,1440.7297311000293,25,PPS,b,stim_25_b_u.jpg,filler,1440.7297311000293,None,1443.1980753000826,1443.1980753000826,,,F0101,yellow,a,50,2023-09-26_17h39.06.230,Ownership,2023.1.2,59.96925976074086,
2,PPS,O,n,n,3,0,3,0,0,20,20,20,a,,yellow,,,,,,4,1444.4006467000581,1448.4894721000455,30,PPS,b,stim_30_b_u.jpg,test,1448.4894721000455,None,,,,,F0101,yellow,a,50,2023-09-26_17h39.06.230,Ownership,2023.1.2,59.96925976074086,
2,EPS,O,n,n,3,0,3,0,0,21,21,21,a,,yellow,,,,,,2,1450.9280878000427,1452.9741618999979,80,EPS,b,stim_80_b_u.jpg,test,1452.9741618999979,None,,,,,F0101,yellow,a,50,2023-09-26_17h39.06.230,Ownership,2023.1.2,59.96925976074086,
1,EPS,S,n,n,3,0,3,0,0,22,22,22,a,,yellow,,,,,,8,1455.4569509000285,1463.4983033000026,75,EPS,y,stim_75_y_u.jpg,test,1463.4983033000026,None,,,,,F0101,yellow,a,50,2023-09-26_17h39.06.230,Ownership,2023.1.2,59.96925976074086,
1,EPS,S,n,n,3,0,3,0,0,23,23,23,a,,yellow,,,,,,4,1465.9805046999827,1470.027734400006,75,EPS,y,stim_75_y_u.jpg,test,1470.027734400006,None,,,,,F0101,yellow,a,50,2023-09-26_17h39.06.230,Ownership,2023.1.2,59.96925976074086,
2,PPS,O,n,n,3,0,3,0,0,24,24,24,a,,yellow,,,,,,10,1472.507447800017,1482.65869270009,30,PPS,b,stim_30_b_u.jpg,test,1482.65869270009,None,,,,,F0101,yellow,a,50,2023-09-26_17h39.06.230,Ownership,2023.1.2,59.96925976074086,
1,PPS,S,n,n,3,0,3,0,0,25,25,25,a,,yellow,,,,,,2,1485.0289692999795,1487.1238850000082,25,PPS,y,stim_25_y_u.jpg,test,1487.1238850000082,None,,,,,F0101,yellow,a,50,2023-09-26_17h39.06.230,Ownership,2023.1.2,59.96925976074086,
2,PPS,O,n,n,3,0,3,0,0,26,26,26,a,,yellow,,,,,,4,1489.5585431000218,1493.6012196000665,30,PPS,b,stim_30_b_u.jpg,test,1493.6012196000665,None,,,,,F0101,yellow,a,50,2023-09-26_17h39.06.230,Ownership,2023.1.2,59.96925976074086,
2,PPS,O,n,n,3,0,3,0,0,27,27,27,a,,yellow,,,,,,4,1496.0860360000515,1500.1558072000043,30,PPS,b,stim_30_b_u.jpg,test,1500.1558072000043,None,,,,,F0101,yellow,a,50,2023-09-26_17h39.06.230,Ownership,2023.1.2,59.96925976074086,
3,BOUND,O,n,n,3,0,3,0,0,28,28,28,a,,yellow,,,,,,4,1502.6128284999868,1506.6655187000288,30,BOUND,b,stim_30_b_u.jpg,test,1506.6655187000288,None,,,,,F0101,yellow,a,50,2023-09-26_17h39.06.230,Ownership,2023.1.2,59.96925976074086,
2,PPS,S,n,n,3,0,3,0,0,29,29,29,a,,yellow,,,,,,2,1509.139731100062,1511.2829099000664,30,PPS,y,stim_30_y_u.jpg,test,1511.2829099000664,None,,,,,F0101,yellow,a,50,2023-09-26_17h39.06.230,Ownership,2023.1.2,59.96925976074086,
2,EPS,O,n,n,3,0,3,0,0,30,30,30,a,,yellow,,,,,,4,1513.668638800038,1517.7158238000702,80,EPS,b,stim_80_b_u.jpg,test,1517.7158238000702,None,,,,,F0101,yellow,a,50,2023-09-26_17h39.06.230,Ownership,2023.1.2,59.96925976074086,
3,PPS,S,y,n,3,0,3,0,0,31,31,31,a,,yellow,,,,,,2,1520.196265000035,1522.242006800021,35,PPS,y,stim_35_y_u.jpg,filler,1522.242006800021,None,1524.7219018000178,1524.7219018000178,,,F0101,yellow,a,50,2023-09-26_17h39.06.230,Ownership,2023.1.2,59.96925976074086,
2,PPS,S,n,n,3,0,3,0,0,32,32,32,a,,yellow,,,,,,2,1525.924325000029,1527.9692393000005,30,PPS,y,stim_30_y_u.jpg,test,1527.9692393000005,None,,,,,F0101,yellow,a,50,2023-09-26_17h39.06.230,Ownership,2023.1.2,59.96925976074086,
2,PPS,S,n,n,3,0,3,0,0,33,33,33,a,,yellow,,,,,,2,1530.4532853000565,1532.501760700019,30,PPS,y,stim_30_y_u.jpg,test,1532.501760700019,None,,,,,F0101,yellow,a,50,2023-09-26_17h39.06.230,Ownership,2023.1.2,59.96925976074086,
3,PPS,O,n,n,3,0,3,0,0,34,34,34,a,,yellow,,,,,,2,1534.9825534999836,1537.0847374000587,35,PPS,b,stim_35_b_u.jpg,test,1537.0847374000587,None,,,,,F0101,yellow,a,50,2023-09-26_17h39.06.230,Ownership,2023.1.2,59.96925976074086,
1,EPS,S,n,n,3,0,3,0,0,35,35,35,a,,yellow,,,,,,10,1539.5110393000068,1549.5890029000584,75,EPS,y,stim_75_y_u.jpg,test,1549.5890029000584,None,,,,,F0101,yellow,a,50,2023-09-26_17h39.06.230,Ownership,2023.1.2,59.96925976074086,
2,EPS,O,n,n,3,0,3,0,0,36,36,36,a,,yellow,,,,,,4,1552.0335060000652,1556.0936107999878,80,EPS,b,stim_80_b_u.jpg,test,1556.0936107999878,None,,,,,F0101,yellow,a,50,2023-09-26_17h39.06.230,Ownership,2023.1.2,59.96925976074086,
3,PPS,O,n,n,3,0,3,0,0,37,37,37,a,,yellow,,,,,,2,1558.5603879999835,1560.6485264999792,35,PPS,b,stim_35_b_u.jpg,test,1560.6485264999792,None,,,,,F0101,yellow,a,50,2023-09-26_17h39.06.230,Ownership,2023.1.2,59.96925976074086,
2,EPS,S,n,n,3,0,3,0,0,38,38,38,a,,yellow,,,,,,2,1563.0891878000693,1565.1364238000242,80,EPS,y,stim_80_y_u.jpg,test,1565.1364238000242,None,,,,,F0101,yellow,a,50,2023-09-26_17h39.06.230,Ownership,2023.1.2,59.96925976074086,
2,EPS,S,n,n,3,0,3,0,0,39,39,39,a,,yellow,,,,,,4,1567.6183678000234,1571.6921801000135,80,EPS,y,stim_80_y_u.jpg,test,1571.6921801000135,None,,,,,F0101,yellow,a,50,2023-09-26_17h39.06.230,Ownership,2023.1.2,59.96925976074086,
3,EPS,O,n,n,3,0,3,0,0,40,40,40,a,,yellow,,,,,,2,1574.1462260000408,1576.1936436999822,85,EPS,b,stim_85_b_u.jpg,test,1576.1936436999822,None,,,,,F0101,yellow,a,50,2023-09-26_17h39.06.230,Ownership,2023.1.2,59.96925976074086,
2,EPS,S,n,n,3,0,3,0,0,41,41,41,a,,yellow,,,,,,4,1578.675285300007,1582.7211862000404,80,EPS,y,stim_80_y_u.jpg,test,1582.7211862000404,None,,,,,F0101,yellow,a,50,2023-09-26_17h39.06.230,Ownership,2023.1.2,59.96925976074086,
2,EPS,S,n,n,3,0,3,0,0,42,42,42,a,,yellow,,,,,,4,1585.2023308000062,1589.24746470002,80,EPS,y,stim_80_y_u.jpg,test,1589.24746470002,None,,,,,F0101,yellow,a,50,2023-09-26_17h39.06.230,Ownership,2023.1.2,59.96925976074086,
1,BOUND,O,n,n,3,0,3,0,0,43,43,43,a,,yellow,,,,,,2,1591.7293456000043,1593.8193531000288,80,BOUND,b,stim_80_b_u.jpg,test,1593.8193531000288,None,,,,,F0101,yellow,a,50,2023-09-26_17h39.06.230,Ownership,2023.1.2,59.96925976074086,
2,PPS,S,n,n,3,0,3,0,0,44,44,44,a,,yellow,,,,,,2,1596.2590248000342,1598.3433434000472,30,PPS,y,stim_30_y_u.jpg,test,1598.3433434000472,None,,,,,F0101,yellow,a,50,2023-09-26_17h39.06.230,Ownership,2023.1.2,59.96925976074086,
3,EPS,O,n,n,3,0,3,0,0,45,45,45,a,,yellow,,,,,,6,1600.787501999992,1606.8759946000064,85,EPS,b,stim_85_b_u.jpg,test,1606.8759946000064,None,,,,,F0101,yellow,a,50,2023-09-26_17h39.06.230,Ownership,2023.1.2,59.96925976074086,
3,EPS,O,n,n,3,0,3,0,0,46,46,46,a,,yellow,,,,,,2,1609.3128567000385,1611.4070280999877,85,EPS,b,stim_85_b_u.jpg,test,1611.4070280999877,None,,,,,F0101,yellow,a,50,2023-09-26_17h39.06.230,Ownership,2023.1.2,59.96925976074086,
3,PPS,S,n,n,3,0,3,0,0,47,47,47,a,,yellow,,,,,,2,1613.8431761000538,1615.8902898000088,35,PPS,y,stim_35_y_u.jpg,test,1615.8902898000088,None,,,,,F0101,yellow,a,50,2023-09-26_17h39.06.230,Ownership,2023.1.2,59.96925976074086,
3,PPS,S,n,n,3,0,3,0,0,48,48,48,a,,yellow,,,,,,4,1618.3712782000657,1622.4158711000346,35,PPS,y,stim_35_y_u.jpg,test,1622.4158711000346,None,,,,,F0101,yellow,a,50,2023-09-26_17h39.06.230,Ownership,2023.1.2,59.96925976074086,
3,EPS,S,n,n,3,0,3,0,0,49,49,49,a,,yellow,,,,,,2,1624.8989104999928,1626.9453394000884,85,EPS,y,stim_85_y_u.jpg,test,1626.9453394000884,None,,,,,F0101,yellow,a,50,2023-09-26_17h39.06.230,Ownership,2023.1.2,59.96925976074086,
3,EPS,O,n,n,3,0,3,0,0,50,50,50,a,,yellow,,,,,,2,1629.4273926999886,1631.5231510000303,85,EPS,b,stim_85_b_u.jpg,test,1631.5231510000303,None,,,,,F0101,yellow,a,50,2023-09-26_17h39.06.230,Ownership,2023.1.2,59.96925976074086,
3,EPS,S,n,n,3,0,3,0,0,51,51,51,a,,yellow,,,,,,6,1633.9565400000429,1639.9995588000165,85,EPS,y,stim_85_y_u.jpg,test,1639.9995588000165,None,,,,,F0101,yellow,a,50,2023-09-26_17h39.06.230,Ownership,2023.1.2,59.96925976074086,
3,EPS,S,n,n,3,0,3,0,0,52,52,52,a,,yellow,,,,,,2,1642.4817396000726,1644.5302233999828,85,EPS,y,stim_85_y_u.jpg,test,1644.5302233999828,None,,,,,F0101,yellow,a,50,2023-09-26_17h39.06.230,Ownership,2023.1.2,59.96925976074086,
3,PPS,O,n,n,3,0,3,0,0,53,53,53,a,,yellow,,,,,,6,1647.010992800002,1653.0573233000468,35,PPS,b,stim_35_b_u.jpg,test,1653.0573233000468,None,,,,,F0101,yellow,a,50,2023-09-26_17h39.06.230,Ownership,2023.1.2,59.96925976074086,
3,BOUND,O,y,n,3,0,3,0,0,54,54,54,a,,yellow,,,,,,4,1655.5364629999967,1659.617194200051,35,BOUND,b,stim_35_b_u.jpg,filler,1659.617194200051,None,1662.0596650000662,1662.0596650000662,,,F0101,yellow,a,50,2023-09-26_17h39.06.230,Ownership,2023.1.2,59.96925976074086,
3,PPS,S,n,n,3,0,3,0,0,55,55,55,a,,yellow,,,,,,4,1663.262694300036,1667.3555984999985,35,PPS,y,stim_35_y_u.jpg,test,1667.3555984999985,None,,,,,F0101,yellow,a,50,2023-09-26_17h39.06.230,Ownership,2023.1.2,59.96925976074086,
3,PPS,O,n,n,3,0,3,0,0,56,56,56,a,,yellow,,,,,,4,1669.789806600078,1673.8810224999906,35,PPS,b,stim_35_b_u.jpg,test,1673.8810224999906,None,,,,,F0101,yellow,a,50,2023-09-26_17h39.06.230,Ownership,2023.1.2,59.96925976074086,
3,BOUND,S,n,n,3,0,3,0,0,57,57,57,a,,yellow,,,,,,4,1676.3173067000462,1680.4322846999858,35,BOUND,y,stim_35_y_u.jpg,test,1680.4322846999858,None,,,,,F0101,yellow,a,50,2023-09-26_17h39.06.230,Ownership,2023.1.2,59.96925976074086,
3,EPS,S,n,n,3,0,3,0,0,58,58,58,a,,yellow,,,,,,2,1682.8445017000195,1684.9154272000305,85,EPS,y,stim_85_y_u.jpg,test,1684.9154272000305,None,,,,,F0101,yellow,a,50,2023-09-26_17h39.06.230,Ownership,2023.1.2,59.96925976074086,
3,PPS,S,n,n,3,0,3,0,0,59,59,59,a,,yellow,,,,,,2,1687.3733976000221,1689.4460667000385,35,PPS,y,stim_35_y_u.jpg,test,1689.4460667000385,None,,,,,F0101,yellow,a,50,2023-09-26_17h39.06.230,Ownership,2023.1.2,59.96925976074086,
,,,,,,,,,,,,,a,,yellow,,,,,,,,,,,,,,,,,,,,F0101,yellow,a,50,2023-09-26_17h39.06.230,Ownership,2023.1.2,59.96925976074086,
,,,,,,,,,,,,,,,,,,,,,,,,,,,,,,,,,1691.8993083999958,1691.8993083999958,,,,,,,,,
